time,seconds_elapsed,z,y,x
1744662888740073200,0.0260732421875,-0.9726280578255653,0.3322140389166772,0.0020399265960790217
1744662888760134100,0.046134033203125,-0.2708335414111614,0.28234716133326293,0.009660694664949551
1744662888780194300,0.0661943359375,-0.0972363853931427,0.17432400898784398,0.17771876599267125
1744662888800255200,0.086255126953125,-0.22528642672300336,0.2003831638738513,0.24953701608339324
1744662888820315400,0.1063154296875,-0.3579910158604383,0.39720980430990455,0.24769968112101776
1744662888840376300,0.126376220703125,-0.5351023174792527,0.46654754443019625,-0.022452417364623396
1744662888860437200,0.146437255859375,-0.7974164523482322,0.4589882150918245,-0.11946441941736265
1744662888880497200,0.1664970703125,-0.9670096334218978,0.43662206950485705,0.043117590552871114
1744662888900558300,0.186558349609375,-0.7139777061611413,0.709274643036723,0.23478492569671944
1744662888920618200,0.2066181640625,-0.4765414074391126,0.6589651362523437,0.006442871979472692
1744662888940679400,0.226679443359375,-0.5275198995262385,0.4599839481309056,-0.3287248085614294
1744662888960739300,0.2467392578125,-0.04566518810987472,0.4861950787082314,-0.5556907493365928
1744662888980800300,0.26680029296875,0.5721645124167204,0.6448673450559377,-0.97938922252357
1744662889000860200,0.286860107421875,1.2535551232278346,0.6089443832814693,-0.836208466752991
1744662889020921300,0.30692138671875,0.95169399086833,0.1569143167644739,-0.7526635567776858
1744662889040982300,0.326982177734375,0.4070686427623033,-0.06990852574557066,-0.8193912605300545
1744662889061042400,0.34704248046875,0.18690262779295444,-0.18140666072517633,-0.6072116046721115
1744662889081103400,0.367103271484375,0.14514496851563452,-0.5000330499246716,-0.9192617938190698
1744662889101163300,0.387163330078125,-0.3742483231782913,-1.280798519462347,-2.0102719009190797
1744662889121224200,0.40722412109375,-1.2000684477120638,-0.06452800175100565,-1.7855869472205639
1744662889141284400,0.427284423828125,-1.5102636931747198,0.6112991297140717,-0.9229157132167368
1744662889161345300,0.44734521484375,-1.309120358583331,0.6989262675017118,-0.6887933613482863
1744662889181405700,0.46740576171875,-0.723407797807455,0.43570553918182847,-0.8308658636160194
1744662889201467000,0.487466796875,-0.223250536981225,0.13123276301920414,-0.8840263759173452
1744662889221527800,0.50752783203125,0.20795593721568584,0.1336284259840846,-0.6341605114720762
1744662889241588000,0.527587890625,-0.34237376001179215,-0.0003872457519173622,-0.46682066228315233
1744662889261648600,0.547648681640625,-1.299402097645402,-0.025892858408391475,-0.30578868106678125
1744662889281708800,0.567708740234375,-1.1196370666474103,0.3044873892098665,-0.8747766092739999
1744662889301769700,0.587769775390625,-0.27491818037629123,0.468901706340909,-1.4834285854801534
1744662889321830000,0.607829833984375,0.5062754514455795,-0.27177842104583977,-1.40061001701802
1744662889341890800,0.627890869140625,0.5718389337241649,-0.5992796060964465,-1.3394396551318466
1744662889361951000,0.647950927734375,0.7682143232613802,-0.5778752912789583,-1.1715864495933055
1744662889382011600,0.66801171875,1.27232587467134,-0.2138464565590024,-0.8392236498557031
1744662889402072600,0.688072509765625,1.1008096165806054,0.17852087615579365,-0.6658531422004104
1744662889422132700,0.7081328125,0.3508960891634226,0.33738895733654495,-0.5574626178473234
1744662889442193700,0.728193603515625,-1.3911176737904547,0.08631225579679012,-0.016538170085847376
1744662889462253800,0.74825390625,-0.948332990002632,1.2680728934019803,-0.04987798349931836
1744662889482314800,0.768314697265625,0.04073883762359619,1.2650325027927756,0.617579086766392
1744662889502374700,0.788374755859375,0.7791074731975793,1.212678922960162,0.7975599524721503
1744662889522435600,0.808435546875,0.05991232464909553,0.7556567472442984,0.2524898562733084
1744662889542495700,0.828495849609375,-0.026892683100700376,0.6000839082166552,-0.2530976859733462
1744662889562556700,0.848556640625,0.05520867700278759,0.5253735351473092,-0.07342712832577526
1744662889582616800,0.868616943359375,0.1932172177672386,0.5044698633283377,0.24638116413466632
1744662889602677800,0.888677734375,0.8031009277254343,0.5891378590494394,0.3332818508112803
1744662889622739000,0.908739013671875,0.6579635579943657,0.370658774253726,0.9037294397749006
1744662889642798600,0.928798583984375,0.4072089280158281,0.20348960545659064,1.3338472419522702
1744662889662859800,0.94885986328125,0.008826280534267424,0.5376268675208091,0.8306899225272237
1744662889682919700,0.968919677734375,-0.46028351559937,0.5398123948663472,-0.4401369457580149
1744662889702980900,0.98898095703125,-0.8587059105694294,0.4361082747638225,-1.0413421130895615
1744662889723040800,1.009040771484375,-1.1263912170827388,-0.40138124477565285,-0.6924238998703658
1744662889743102000,1.02910205078125,-1.1550801359504461,-0.24179566297531127,-1.0764314005188644
1744662889763161600,1.04916162109375,-0.7432856337100266,0.14977379736006258,-1.4076359701320529
1744662889783222800,1.069222900390625,-0.2490922497242689,0.6575695902407169,-1.0684463931143284
1744662889803283700,1.08928369140625,0.6406669707566499,0.9313304172754288,-0.28363752993736413
1744662889823343900,1.10934375,0.9131506174623966,0.5427572161465883,0.3036313569024205
1744662889843404800,1.12940478515625,0.6074935999512672,0.30823709713220593,-0.04990962074659765
1744662889863465000,1.14946484375,0.40277883661389347,0.3090641956061125,-0.2522895113956183
1744662889883526000,1.16952587890625,0.6213152045547962,0.30604747813344,-0.12278466814756393
1744662889903585800,1.189585693359375,0.7688333319425582,0.1958224318295717,0.1579073463898152
1744662889923646700,1.209646728515625,0.9221002321153878,0.0898030205219984,0.4457165725212544
1744662889943707600,1.229707763671875,1.0459089826136827,0.1024555813461542,0.8291017765529454
1744662889963767800,1.249767822265625,0.7468745981127023,-0.18495441633462906,0.8077939078472555
1744662889983828700,1.269828857421875,0.46944823430776594,-0.32099487189650533,0.5953879324201494
1744662890003889000,1.289888916015625,0.5069184255242347,-0.3906605287969112,0.33619046826697885
1744662890023949800,1.30994970703125,0.5099363120406866,-0.4566419442266226,0.05956899110414087
1744662890044009700,1.330009765625,0.7791799539119004,-0.41559740165472026,-0.21591113400384782
1744662890064070700,1.350070556640625,1.0533639747947454,-0.5504366647332907,-0.25860453976131975
1744662890084130800,1.370130859375,1.1305939294695853,-0.5590425805151462,-0.2330967351477593
1744662890104191700,1.390191650390625,0.5346440523177385,-0.4375865306228399,-0.22507314929850397
1744662890124252700,1.410252685546875,0.7361006906419992,-0.12201543734073639,0.06478584896959363
1744662890144312800,1.430312744140625,1.0199357524454593,-0.07238952890634537,0.13337803141959012
1744662890164373800,1.450373779296875,1.0731927108585835,-0.23809797750115394,0.22914127552025018
1744662890184433000,1.470432861328125,0.7201134324371814,-0.4192465718120336,0.07517134164460003
1744662890204494000,1.490494140625,0.46546880928277967,-0.5316922167748213,-0.06860876825861632
1744662890224554000,1.510553955078125,0.5247276384592056,-0.42830841466784475,-0.01502389306537807
1744662890244615200,1.530615234375,0.7204431027829646,-0.2845633760780096,0.2828505077455193
1744662890264674800,1.5506748046875,0.7841355304926634,-0.26230010634362694,0.3987177246548235
1744662890284736000,1.570736083984375,0.7116168222486973,-0.27430034073889253,0.3668916037399322
1744662890304797000,1.590796875,0.671012424659729,-0.19413783974349497,0.3069196578580886
1744662890324857000,1.610857177734375,0.5220978744775057,-0.1384755737543106,0.3285623114760965
1744662890344918000,1.63091796875,0.26755963430702684,-0.12088204939663409,0.29351204088293015
1744662890364978200,1.650978271484375,0.07083879233300686,-0.08810849156379699,0.3097306966908276
1744662890385039000,1.6710390625,0.16326456257402897,-0.19389935481250284,0.36911256772503254
1744662890405099000,1.69109912109375,0.41835868306159973,-0.33241409153342244,0.43963038447536523
1744662890425160000,1.711159912109375,0.39976095009744167,-0.5141700040876865,0.472354257947579
1744662890445220000,1.73122021484375,0.4601432303458452,-0.6826876648843287,0.22585019808560608
1744662890465281000,1.751281005859375,0.5721545755445957,-0.7371160051643848,0.11960808393806219
1744662890485342000,1.771342041015625,0.3278694338411093,-0.5366489623993634,-0.03149740041717887
1744662890505402000,1.791402099609375,0.3692623514592647,-0.2997697130382061,-0.1455106600228697
1744662890525463000,1.811463134765625,0.7169079143941403,0.02191898634135723,-0.16347316382341087
1744662890545523000,1.83152294921875,1.0137713845968246,0.20181670380830763,-0.2576017193943262
1744662890565584000,1.851583984375,0.9922399362683295,0.35639527110159397,-0.49968957024924454
1744662890585644000,1.87164404296875,0.6634820291548967,0.5731301425784826,-0.5344751254916191
1744662890605705000,1.891705078125,0.5558475838661193,0.48606151545643805,-0.3021026129651814
1744662890625766100,1.91176611328125,0.46746962771117684,0.2842594246953726,-0.2404544774994254
1744662890645826000,1.931825927734375,0.38742578465938565,-0.056392918351292606,-0.29907398585900663
1744662890665887200,1.95188720703125,0.3291355082541704,-0.357277314633131,-0.44753911177329714
1744662890685947000,1.97194677734375,-0.08031798381805419,-0.6030301908016205,-0.4760757626887411
1744662890706008000,1.992008056640625,-0.9352057974040507,-0.6441741020947694,-0.7348214644864202
1744662890726068000,2.01206787109375,-1.2183230663269757,-0.18329028251469134,-0.5997484657172113
1744662890746129200,2.032129150390625,-1.326394149467349,-0.08512392279505729,-0.09950615695603192
1744662890766189000,2.05218896484375,-1.1003764858603478,0.05458733023405075,-0.023177461969852445
1744662890786250200,2.072250244140625,-0.9399375021010636,-0.14078209713101386,0.011595306856185197
1744662890806311000,2.092310791015625,-1.1501011784940958,-0.12788403711318969,-0.1267627779982984
1744662890826371000,2.11237109375,-1.0788730945825575,0.06450199052691459,-0.5459138535466045
1744662890846432000,2.132431884765625,-0.8089373787939548,0.1834580402970314,-0.40713498599678277
1744662890866492200,2.1524921875,-0.388980612885952,0.40226095021963115,-0.38255569440498943
1744662890886553000,2.172552978515625,-0.069385670915246,0.6961924586236476,-0.5228631597615778
1744662890906613000,2.192613037109375,0.16079495759010315,0.843445213073492,-0.40265988640934225
1744662890926674200,2.212674072265625,0.18968670555353165,0.9394505953669547,-0.3839734522484243
1744662890946733800,2.23273388671875,-0.08581775027811527,0.9393331064671278,-0.5186958109490573
1744662890966795000,2.252794921875,0.013488427126407623,0.9598428105324506,-0.3507289889682084
1744662890986856000,2.27285595703125,0.28630057513415813,0.9400368708223104,-0.08521298931799828
1744662891006916000,2.292916015625,0.5387105711042881,0.9982435605973005,0.06586991787925363
1744662891026977000,2.31297705078125,0.47304947367012495,0.967650853934884,-0.10156118978969753
1744662891047037200,2.333037109375,0.5717845731884241,0.8154793477833271,-0.23768968896120785
1744662891067097900,2.353097900390625,0.5420440994411707,0.5398796148836612,-0.35151794738881287
1744662891087158000,2.373157958984375,-0.22416180660724638,0.38614918885231014,-0.7477398366399108
1744662891107219000,2.393218994140625,-0.64186056445539,0.3511491871416569,-0.9742319858908652
1744662891127279900,2.41327978515625,-0.9480044887006283,0.38522272165715693,-1.0238495648883283
1744662891147340000,2.433340087890625,-1.0987994458019732,0.38097733917236326,-0.9295183994174003
1744662891167401000,2.45340087890625,-1.0463245776772498,0.19921324331164358,-0.902485065736994
1744662891187460900,2.4734609375,-0.6374754812389611,-0.08214929089844226,-1.0050966413624585
1744662891207521800,2.493521728515625,-0.2583428931504488,-0.30839550256431103,-1.1330386192079633
1744662891227582000,2.51358203125,-0.2383914074897766,-0.4707967263072729,-1.1102811362158507
1744662891247643000,2.533642822265625,-0.3017904052108526,-0.4337590812891721,-1.0011160472936929
1744662891267703000,2.553703125,-0.32402678693830966,-0.26538053670227524,-0.7466258840486407
1744662891287764000,2.573763916015625,-0.20324995148181915,-0.14426760115921497,-0.6075126699779182
1744662891307825200,2.5938251953125,-0.07975099758505821,-0.09804010299146175,-0.5002677719959989
1744662891327884800,2.613884765625,0.0035603228300809856,-0.0022048165678977966,-0.5138558966372162
1744662891347946000,2.633946044921875,0.12273030761182308,0.04282207363843918,-0.5937130214778706
1744662891368006000,2.654005859375,0.21727847683429716,0.09264145881831645,-0.6146928638055921
1744662891388067000,2.674067138671875,0.10507073228061199,0.2859820107042789,-0.6779261495709419
1744662891408127000,2.694126953125,0.33799569105803967,0.4829126960366964,-0.6078863255959004
1744662891428188200,2.714188232421875,0.8739590092808007,0.5937883152037858,-0.48482353462669997
1744662891448249000,2.7342490234375,1.4242974743366241,0.5811234794199467,-0.2681403568044305
1744662891468309000,2.75430908203125,1.4549942258954047,0.6103565881669522,-0.2134989582955837
1744662891488370000,2.774369873046875,1.474813025087118,0.6252639421805739,-0.029506664991378783
1744662891508430000,2.79443017578125,1.5458330192059277,0.6038192953526973,0.20209347492307422
1744662891528491000,2.814490966796875,1.4380343232661486,0.4688479303270578,0.30936668568402526
1744662891548551200,2.83455126953125,1.3563000429093837,0.3053308542966843,0.3536222261916846
1744662891568612000,2.854612060546875,1.1770400388240814,0.15319938789457083,0.3209283094663173
1744662891588672000,2.874672119140625,0.9992927773892879,-0.06696282768249512,0.21133746941275894
1744662891608733000,2.89473291015625,0.6011620588421821,-0.18841507818251846,0.06262271611895412
1744662891628793900,2.9147939453125,0.15583762744367122,-0.18128712599873542,0.09583265607506036
1744662891648854000,2.93485400390625,-0.3252326555967331,-0.14956746113300323,0.13132730943486093
1744662891668915000,2.9549150390625,-0.962083867457509,-0.17687515477538107,0.12559793547000736
1744662891688975000,2.97497509765625,-1.1170704310297965,-0.24827888751477,0.039885362599417565
1744662891709036000,2.9950361328125,-0.8716875572174787,-0.3268643484517932,0.20099713105373082
1744662891729096000,3.015095947265625,-0.569862080693245,-0.32042934696823355,0.3852892110221088
1744662891749156900,3.035156982421875,-0.5651613556563854,-0.2194192882552743,0.6301252646066248
1744662891769218000,3.055218017578125,-0.8876111025363206,-0.04670622159540653,0.8363811199061572
1744662891789278000,3.07527783203125,-1.4338023847848176,0.1698632301867008,0.8990263766504824
1744662891809339100,3.095339111328125,-1.5111773008882998,0.337228506077826,0.917590353475511
1744662891829399000,3.11539892578125,-1.4556477213680743,0.36818712344318627,0.9191075531054288
1744662891849460200,3.135460205078125,-1.65659173399508,0.5270385457500815,0.9909474122397601
1744662891869520000,3.155519775390625,-1.735669946885109,0.6859431595489383,0.9716363433744758
1744662891889581000,3.1755810546875,-1.7375433395415543,0.6443450747475028,0.7178511135283857
1744662891909642000,3.19564208984375,-1.4619003520220517,0.46168490682989355,0.391599307484366
1744662891929702100,3.2157021484375,-0.9977063849806785,0.2919409191086888,0.29405831312146036
1744662891949763000,3.23576318359375,-0.7557061393439769,0.2229939318716526,0.3104840723413974
1744662891969823200,3.2558232421875,-0.9364163422375917,0.4101218928530812,0.26972497738106177
1744662891989884000,3.2758837890625,-1.1495400374799967,0.702116880236566,0.34502617421671744
1744662892009944000,3.295944091796875,-1.0384142429441212,1.0573206034660338,0.3041347215809859
1744662892030005000,3.3160048828125,-0.579783755248785,1.3191881636112928,0.1762993641814217
1744662892050065200,3.336065185546875,-0.19696692568957805,1.3749284632727503,0.028650468287151305
1744662892070126000,3.3561259765625,-0.2924544215887785,1.5642510116890072,-0.13416052356678992
1744662892090187000,3.37618701171875,-0.32465865510106084,1.6329606830388306,-0.37046456685587764
1744662892110247000,3.396246826171875,0.11990765140652655,1.4902344661027191,-0.7722581187594681
1744662892130307800,3.416307861328125,0.6634487114071845,1.1876900276541709,-1.0563052889436482
1744662892150368000,3.436367919921875,1.4536533326804637,0.91555007981956,-1.1464273853521794
1744662892170429000,3.456428955078125,2.160671136701107,0.6817144359380006,-0.8835863039996474
1744662892190489900,3.47648974609375,2.41121066262424,0.5356579055353999,-0.5141101271266117
1744662892210550800,3.49655078125,2.1738509362697602,0.4608683297500014,-0.12527652149591595
1744662892230611700,3.51661181640625,1.716789889848232,0.6072071842253208,0.20814291115514932
1744662892250671900,3.536671875,1.3386726162821054,0.823329184500873,0.5883901094220578
1744662892270732800,3.55673291015625,1.2267904504209757,0.9510337733939289,0.8437065674234181
1744662892290792700,3.576792724609375,1.3431167362093925,1.014029743272066,1.0483303645417095
1744662892310853600,3.596853515625,1.0238245765775442,0.7072226789429783,0.9375842900384217
1744662892330913800,3.616913818359375,0.3820873462408781,-0.019098375962674618,0.03686623397395015
1744662892350974700,3.636974609375,-0.27888299235403535,-0.4554074339956045,-0.2738040816545486
1744662892371036000,3.657035888671875,-0.12043547467291355,-0.5306465071141719,-0.09353007822111248
1744662892391095800,3.677095703125,-0.25921675337553024,-0.5870505313813686,-0.32960166446119543
1744662892411157000,3.697156982421875,-0.21949966001510618,-0.8181311774663627,-0.4890671270132064
1744662892431216600,3.717216552734375,0.37954467602074143,-1.0537288625843821,-0.3196726833820343
1744662892451277800,3.73727783203125,1.03420159368515,-1.2380436658412217,0.019477438408136368
1744662892471337700,3.757337646484375,1.6337579708963632,-1.1343057895995676,0.4044626980476081
1744662892491399000,3.77739892578125,2.2560148402154443,-0.7595058238878846,1.122362399958074
1744662892511459800,3.7974599609375,2.6086802771389483,-0.237629775467515,1.9644234651967882
1744662892531520000,3.81752001953125,2.5385037481069563,0.30144845990538593,2.801464364185929
1744662892551581000,3.837580810546875,1.6503998936176298,0.7100916585080325,2.9392367581069467
1744662892571640800,3.857640869140625,0.7858622081547975,0.40223216251656413,2.8020529777288434
1744662892591701800,3.87770166015625,-0.37599721267223357,-0.18024068568572402,2.110069661232829
1744662892611135700,3.8971357421875,-1.2740467071145771,-0.5132769277054816,1.488471694213897
1744662892631196700,3.91719677734375,-2.0688667132288217,-0.663355626296252,0.949995808648318
1744662892651256800,3.9372568359375,-1.9686819994240998,-0.8952692891392856,0.7153587852559984
1744662892671317800,3.95731787109375,-1.7888953411161899,-1.0618567855909467,0.26705051574110983
1744662892691378000,3.9773779296875,-1.5129934103995561,-1.1120157779887319,-0.07915054747387766
1744662892711438800,3.99743896484375,-0.8259522264808415,-0.574379996509105,-0.05870382564216852
1744662892731500000,4.0175,0.2726999198049307,0.6083625648055225,0.5061816356822848
1744662892751559700,4.0375595703125,1.1001847626805306,1.9676221151076256,0.4998354815259576
1744662892771620900,4.057620849609375,1.9290175130337475,2.730711496570706,0.18883301133364438
1744662892791680800,4.0776806640625,2.3342811522006985,2.5316984520062804,-0.3189934689462185
1744662892811742000,4.097741943359375,1.6103659893929958,1.7869560436166823,-1.0556351345971227
1744662892831801900,4.1178017578125,0.641030543372035,1.3262464115597308,-1.3011416347891092
1744662892851862800,4.13786279296875,-1.1222925495922564,1.168615470958501,-1.3822601213350891
1744662892871923700,4.157923828125,-2.0581676245599985,0.94592636725232,-1.7123361253097653
1744662892891984000,4.17798388671875,-2.5882155812591314,0.3608836320294067,-1.8733464792162178
1744662892912044800,4.198044921875,-3.1729186727315186,-0.2967824043231085,-2.393342120717466
1744662892932104700,4.218104736328125,-3.073255352452397,-0.6921190717048943,-2.6317051788955927
1744662892952166000,4.238165771484375,-2.778274627256393,-0.9485156530931591,-2.1831997793734073
1744662892971598800,4.257598876953125,-2.505502811259031,-0.9609015258051454,-1.953894180136919
1744662892991659800,4.27765966796875,-1.3089257127940654,-0.9164208713047206,-1.6400182003349064
1744662893011721000,4.297720947265625,-0.1784685614466667,-0.8439932023450731,-0.8861509668558836
1744662893031780600,4.317780517578125,0.41022155383527276,-0.5862867804672569,0.2768018021658063
1744662893051841800,4.337841796875,0.36282501188814636,-0.04598930549770593,0.737522247877717
1744662893071901700,4.357901611328125,0.013650924211740493,-0.4945714235179126,1.7553633661314845
1744662893091963000,4.377962890625,-0.3912590792119503,-0.32796105764731764,2.1861589214399455
1744662893112022800,4.398022705078125,-0.3987573260128498,-0.5882163602903485,3.0833769334942103
1744662893132084000,4.418083984375,-0.8606102828860283,-0.8818937478028237,4.094643934054672
1744662893152145000,4.438144775390625,-2.2438789967417714,-1.0522867740172892,4.228893999068439
1744662893172204800,4.458204833984375,-4.281924455249309,-1.5134563517361879,3.5250323209911585
1744662893192265200,4.47826513671875,-6.563774578467011,-1.8592768912009894,2.262201419895887
1744662893212325400,4.498325439453125,-7.754924975708127,-2.3889235736228525,0.7122709022432565
1744662893232386300,4.51838623046875,-6.591555150318145,-2.9423914227455854,-0.4019213430017233
1744662893252446500,4.538446533203125,-4.443718360748886,-3.146390439029038,-0.8666326119154691
1744662893272507100,4.558507080078125,-2.620270177167654,-3.3013393009394405,-1.2839423704460262
1744662893292568300,4.578568359375,-1.3191940088301897,-3.256007582567632,-1.1856059148564935
1744662893312628200,4.598628173828125,-0.2511918523520231,-2.720704774080217,-0.681169077014923
1744662893332689400,4.618689453125,0.7078460715383291,-2.2516109061680734,0.1978159437343478
1744662893352749300,4.638749267578125,1.5470955864876508,-1.9564722139313815,0.9717188340261578
1744662893372810200,4.658810302734375,2.1099194391071796,-1.5660378951057792,2.2473609936386345
1744662893392870100,4.6788701171875,1.8286866687566041,-0.13161292144320905,4.439316326397657
1744662893412931300,4.698931396484375,0.9303156872749329,1.9043398756340144,6.921140155905484
1744662893432991200,4.7189912109375,0.4572282196819782,3.9391546816572545,8.044614024236798
1744662893453052200,4.73905224609375,0.8919991083621979,4.06209512488842,7.59814626802206
1744662893473113300,4.75911328125,1.7693325625121592,2.673051627023518,5.089236278668046
1744662893493173200,4.77917333984375,3.1140660862684246,-0.056714113129675385,2.4845284122914073
1744662893513234400,4.799234375,3.0023253747045993,-2.0194997479915617,0.993359149556607
1744662893533294000,4.819294189453125,1.3053425936102867,-2.587095052796602,-0.7461293327033519
1744662893553355300,4.839355224609375,-1.1483277390807867,-2.8433775062859055,-1.8259981603249906
1744662893573415200,4.859415283203125,-2.9148715476572513,-3.360856488791108,-2.6387533438414335
1744662893593476400,4.879476318359375,-1.9620278022319078,-2.990793050082028,-2.6505159700885415
1744662893613537300,4.899537353515625,0.31790976536273957,-2.05066221736595,-2.2739247370459137
1744662893633597400,4.919597412109375,2.2539783659517765,-0.6614017157495021,-2.0167083637073633
1744662893653658400,4.939658447265625,2.99561038723588,0.3835895674973726,-1.9885969524666667
1744662893673718300,4.95971826171875,2.587281515279412,0.9276698489412665,-2.3388090048886836
1744662893693779200,4.979779296875,1.7449895638942718,1.4005527338728307,-2.724156083577871
1744662893713839400,4.99983935546875,1.1073241130411624,1.8650927378728985,-2.931962383189797
1744662893733900300,5.019900390625,0.928491394457221,2.0385531157687304,-3.2874230037897822
1744662893753961200,5.039961181640625,0.7700146506816148,2.092283536912501,-3.71379577421993
1744662893774021400,5.060021484375,0.6885685396164656,2.128505481633544,-4.0371810483843085
1744662893794082300,5.080082275390625,-0.016761165186762808,2.389317395246029,-4.351448073330522
1744662893814142200,5.10014208984375,-1.1174924558341504,2.448001054883003,-4.596850820887089
1744662893834203100,5.120203125,-1.7898621403217314,2.058364316175878,-4.9272453892916435
1744662893854263300,5.14026318359375,-0.9487269577562808,1.1169649248287081,-4.86482166634351
1744662893874324200,5.16032421875,0.6741764416486025,0.42392976119220255,-3.7929792010501027
1744662893894385400,5.180385498046875,1.3032733861207961,0.8082572875753045,-2.801837581412494
1744662893914445300,5.2004453125,1.0312351450949906,1.1761351989388464,-2.0516070970006286
1744662893934506500,5.220506591796875,1.0398200180888175,0.8765344127267598,-1.0719935642018914
1744662893954566100,5.240566162109375,0.2620756499379873,0.04252630556225776,-0.4591469127848744
1744662893974627300,5.26062744140625,-0.5952542961031199,-0.7883394119232893,0.020683599327504635
1744662893994687200,5.280687255859375,-0.4770540331363678,-0.8065972454085946,0.6871051890656351
1744662894014748400,5.30074853515625,-0.18060148182213306,-0.6781494369328022,1.5196622206389903
1744662894034808300,5.320808349609375,-0.1424754570454359,-0.510455952000618,2.5560923040285704
1744662894054869500,5.340869384765625,0.0803355194747448,-0.03274696208685636,3.6348619382366536
1744662894074930200,5.36093017578125,0.608006810170412,0.774988347440958,3.9019156688481567
1744662894094990300,5.380990234375,0.7044581826657056,0.9072551296830177,4.237783115705848
1744662894115051300,5.40105126953125,0.4112432980984449,0.6335457405745982,4.395606364008784
1744662894135111400,5.421111328125,-0.08822013524472713,0.7680231846034526,3.456170966210961
1744662894155172400,5.44117236328125,0.23594342981576918,1.129967906525731,2.7595553137391806
1744662894175233300,5.4612333984375,-0.19494623351693152,1.331884563577175,2.1588097267434
1744662894195294000,5.4812939453125,0.011247370201349258,1.5433493856966494,1.353033003937453
1744662894215355000,5.50135498046875,0.4260632660895586,1.4505331548333167,0.8587496035806834
1744662894235415000,5.5214150390625,-1.235872167021036,1.1697031200647354,1.2818312235109508
1744662894255476000,5.54147607421875,-2.642662626239657,2.3254952036768195,0.9670070761386305
1744662894275536000,5.561535888671875,-2.2790865037232635,3.063921122395992,1.2183701934043318
1744662894295596800,5.5815966796875,-0.23420213910639284,3.4256063165992496,1.6273092331483958
1744662894315657000,5.601656982421875,2.541285487779975,2.738843365100026,2.410887129758298
1744662894335718000,5.6217177734375,3.427886536490917,1.8386194492280483,2.3235190812982616
1744662894355778800,5.64177880859375,2.498973117229342,1.447453308996558,1.40592565908283
1744662894375839000,5.6618388671875,1.4021774124652147,1.2374877855241297,0.9127933284573256
1744662894395899600,5.681899658203125,1.5462211417406797,1.2842477831333874,0.4081915823776275
1744662894415959800,5.701959716796875,2.6775527378350494,1.2019342415839434,0.5465397303599864
1744662894436020700,5.722020751953125,3.3260862041831016,1.1719278103768824,0.8840976145226508
1744662894456081000,5.742080810546875,2.875437947413325,1.1261883879870176,0.9293861513398587
1744662894476141800,5.762141845703125,1.3188023791640997,1.213193886744976,0.5415425065945834
1744662894496203000,5.782203125,-0.27982933329343795,1.3108581421613692,-0.06712833870882168
1744662894516262700,5.8022626953125,-0.20726094068884848,1.09018943836689,-0.5813822764866053
1744662894536323800,5.82232373046875,0.7040741517841815,1.1206406907320021,-0.6142373020578176
1744662894556383700,5.8423837890625,0.8360007422864436,1.252968847772479,-0.5399033610854298
1744662894576445000,5.86244482421875,0.2263186923801899,1.1810457673341035,-0.9383212260108441
1744662894596504800,5.8825048828125,-0.5525462042331695,0.7163818446934223,-1.5505504031166433
1744662894616566000,5.90256591796875,-0.19008710304796694,0.3933756329745054,-2.0333229600302873
1744662894636627000,5.922626953125,0.5398001199066639,0.05447568655312061,-2.0819551812522112
1744662894656686800,5.942686767578125,1.058303184762597,0.08408931905031204,-1.654459690402448
1744662894676747800,5.962747802734375,0.24750468827188013,0.26428864981234074,-0.9466291817594319
1744662894696808000,5.982807861328125,-0.6116413672804832,0.17231413047015665,-0.68504474940449
1744662894716868900,6.002868896484375,-0.5205494759917259,-0.3553139056056738,-0.8497120183832942
1744662894736929000,6.022928955078125,0.3605716800034046,-0.5168634809553623,-1.8165262753635645
1744662894756990000,6.042989990234375,-0.5213391650646925,-0.17574468944072721,-1.4540560682624577
1744662894777051000,6.06305078125,-3.0058126322984693,1.1637047564327716,-0.26897132773585614
1744662894797110800,6.08311083984375,-4.557979530701041,1.3088155304178595,-0.6779186238516122
1744662894817171700,6.103171630859375,-3.426773022291064,0.760573745380342,-1.7725778280436992
1744662894837231900,6.12323193359375,-1.214488018208742,0.0530032759130001,-2.801647027276456
1744662894857292800,6.143292724609375,1.2134119134098291,-0.4778823006540537,-2.4236964885793624
1744662894877353000,6.16335302734375,1.8093325644671916,-1.5982082263484596,-1.2745000038400291
1744662894897414000,6.183413818359375,0.4260100745975971,-0.9835326059386134,-2.0272326803311707
1744662894917473800,6.203473876953125,-1.1978209610462187,-0.2205725499436259,-2.456341597726941
1744662894937534700,6.22353466796875,-1.6790519876062868,0.11070903042852878,-1.9498769073195754
1744662894957596000,6.243595947265625,-0.5028945768356323,0.20295915184170008,-1.4229019283249973
1744662894977655800,6.26365576171875,0.2755231605321169,-0.2205535529822111,-0.7990903769098222
1744662894997717000,6.283717041015625,0.7759153991580009,-0.45165655702948565,-0.8979742372490465
1744662895017777000,6.30377685546875,1.0907646079063416,-0.6604658962041139,-0.5058620848717168
1744662895037838000,6.323838134765625,1.3719073618859052,-0.43505379727482796,-0.11846757213342934
1744662895057897700,6.343897705078125,1.0309580817192792,-0.34767712711691856,0.22348292096499353
1744662895077959000,6.363958984375,0.9241296921163796,-0.29340953035652634,0.6037064826279879
1744662895098019800,6.384019775390625,0.8606652279436587,-0.4032008614182472,0.942206616076827
1744662895118080000,6.404080078125,0.8100088074177503,-0.47576808497905726,0.9963390421502292
1744662895138141000,6.424140869140625,0.345645329028368,-0.7010720473587513,1.0942078802280126
1744662895158201000,6.444201171875,-0.4934399352699518,-1.0987678816199302,0.7925703274913132
1744662895178262000,6.464261962890625,-0.7456471021443605,-1.5567676701962947,0.5006130052370951
1744662895198321200,6.484321044921875,-0.48713294408023355,-1.4019330823153258,0.6255598563872278
1744662895218382000,6.504382080078125,-0.5678484027832746,-1.2257646145045757,1.088526619721204
1744662895238443300,6.524443359375,-0.6910089185059071,-1.0085042578488588,1.268466130503267
1744662895258503200,6.544503173828125,-0.32317221593558787,-0.7662988450288772,0.8960875467196107
1744662895278564000,6.564564208984375,0.3707797702848911,0.023740356549620627,0.47578613209240134
1744662895298624000,6.5846240234375,-0.2742880657792091,0.8248299444526433,1.067736491279304
1744662895318685000,6.604684814453125,-1.2798551011323929,1.6321546273529528,1.867409782643616
1744662895338745000,6.6247451171875,-1.1059943257421254,1.9478899712860582,2.228972811771929
1744662895358806000,6.644805908203125,-0.12537643820643424,1.558869026389718,2.0087195569105445
1744662895378867200,6.6648671875,0.5448170712858438,0.4142857345342636,1.5921365052193401
1744662895398927000,6.684927001953125,0.5300362662613392,-0.7107043835788964,0.8094028043486178
1744662895418988300,6.70498828125,0.3374585154414177,-0.871873435178399,0.45007874978613105
1744662895439048000,6.7250478515625,-0.005993687456846237,-0.26698037311434747,0.16233564769346265
1744662895459109000,6.745109130859375,0.00018821604847908018,0.2739326764702797,0.16170003493735566
1744662895479169000,6.7651689453125,0.3641840252816677,0.70047758859694,0.40960228942576793
1744662895499230200,6.785230224609375,0.5247404979407787,0.8986153116315603,0.47210821076463905
1744662895519291100,6.805291015625,0.4192050707578659,0.9607347909361124,0.3515895878529176
1744662895539351300,6.825351318359375,0.11712883434295654,1.1998930911451577,0.4057652320135385
1744662895559412200,6.845412109375,-0.07166296819746494,1.3478840967416763,0.31935996417105195
1744662895579472100,6.86547216796875,0.10627309380769728,1.3129086449503897,0.37494883613046254
1744662895599533000,6.885532958984375,0.7562772172302007,1.1184189230293036,0.48814577438458795
1744662895619593200,6.90559326171875,1.5127245303303003,0.6898971578717231,0.3619575083386153
1744662895639654100,6.925654052734375,1.8272130890727043,0.09585574468970298,0.04848676660293713
1744662895659715000,6.945715087890625,0.9810632932156323,-0.13992051186561583,-0.5384982435278595
1744662895679775200,6.965775146484375,-0.47571606253087517,0.0729629448801279,-0.8578791043564676
1744662895699836000,6.9858359375,-0.24800328544378278,-0.3019692689090967,-0.3822597801983356
1744662895719896000,7.00589599609375,-0.6255944893091917,0.22051497453749178,-0.4228831747487187
1744662895739957000,7.02595703125,-1.6133254237204788,0.5734639045774936,-0.8699336262222379
1744662895760017200,7.04601708984375,-1.9911311471194029,0.44503450854122634,-0.7434644243430346
1744662895780078000,7.066078125,-1.264017480531335,-0.3018126170426607,-0.8975831921048462
1744662895800138200,7.08613818359375,0.4841588967055082,-0.6743196495115756,-1.7622119168519972
1744662895820199200,7.10619921875,-0.2003542300403118,-0.7250088032633065,-1.6921126908399164
1744662895840260000,7.126260009765625,-1.5473790796041487,-0.13509645271003246,-1.4795933912314474
1744662895860320000,7.146320068359375,-2.0888374881118534,0.5807523080199957,-0.8213301927033811
1744662895880381200,7.166381103515625,-1.1879951480805873,1.1875719542324543,-0.14919154049269853
1744662895900441000,7.186441162109375,-0.5658142666071653,0.8247668160885572,0.13121994007024912
1744662895920502300,7.206502197265625,-0.731693980115652,0.13100012330710886,-0.743595576442033
1744662895940562200,7.226562255859375,-0.8052467075824737,-0.2966834374606609,-1.7460341045111416
1744662895960623000,7.246623046875,-0.5378250204414129,-0.21838205416202544,-1.8098432904683053
1744662895980684000,7.26668408203125,0.04710486552417278,0.07159399461448192,-1.6236735069945454
1744662896000744200,7.286744140625,0.7916887223511934,0.2126332813769579,-0.9293271876942366
1744662896020805000,7.30680517578125,1.546001946032047,-0.11868658517897128,-0.5800761623241008
1744662896040865300,7.326865234375,2.0690011532634496,-0.4622428329735994,-0.747954063912481
1744662896060926200,7.34692626953125,2.325375376689434,-0.6943295873612165,-0.8492246001925319
1744662896080986000,7.366986083984375,2.1287001274228095,-0.6096288584142923,-0.5670197334067896
1744662896101047000,7.387047119140625,1.5977087523937223,-0.0052080900371074676,-0.23502185799144207
1744662896121108000,7.40710791015625,0.7798357874721288,0.2234901909559965,1.257526949468255
1744662896141168000,7.427168212890625,0.2728080563545227,0.40690673019886014,1.5406190839499234
1744662896161229000,7.44722900390625,-0.09385609530508518,0.6105196697741746,0.4941270042186603
1744662896181289200,7.467289306640625,-0.2921832034319639,0.03243044348359108,0.018781272837519646
1744662896201350100,7.48735009765625,-0.3096422877550125,-0.4888865097492933,0.010506488706171511
1744662896221410300,7.507410400390625,-0.13684241959452628,-0.580363600963354,0.26220059149190783
1744662896241471200,7.52747119140625,-0.5625333452403545,-0.4547364028662443,0.01702485762424767
1744662896261531400,7.547531494140625,-0.5833072531998157,0.5188385804206133,-0.121143330681324
1744662896281592300,7.56759228515625,-0.051661213654279704,1.1462181995809078,0.5560431064382195
1744662896301653200,7.5876533203125,0.011915478721261023,0.09786182381510734,2.8790102529421446
1744662896321713200,7.607713134765625,-0.6829471926033497,0.08057166631817818,4.485631795109808
1744662896341774300,7.6277744140625,-0.6788941178202629,0.6483037492454051,2.0241056343518196
1744662896361834200,7.647834228515625,-0.47734103338420386,0.8051134365916252,0.2912025218315422
1744662896381895400,7.6678955078125,-0.9542004207313061,1.0692746606320143,-0.31805078126862646
1744662896401955300,7.687955322265625,-1.202365618738532,0.9933937824785709,0.48586504303626715
1744662896422016300,7.708016357421875,-0.8309645016849041,1.32439683817029,0.9684184042412787
1744662896442077200,7.7280771484375,0.5032739315420389,1.5668711310595274,1.265878598228097
1744662896462137300,7.748137451171875,1.7446166389286517,0.8138660673677921,1.596096348761022
1744662896482198300,7.7681982421875,2.2947218797504902,-0.03208206843733787,1.3102718667060136
1744662896502258200,7.788258056640625,2.217926224839687,-0.5266466238230466,0.7428555717296897
1744662896522319400,7.8083193359375,1.1815917107790708,-0.6247779122292995,-0.0054190659066662185
1744662896542379300,7.828379150390625,-0.9104787679046392,-1.4664315657109022,-2.7141531604796647
1744662896562440200,7.848440185546875,-1.1961369534820319,0.05879968723207712,-2.057507845477015
1744662896582501000,7.868501220703125,0.5382827010810375,1.071425116664171,-1.1751160119589417
1744662896602561300,7.888561279296875,0.010120996519923209,1.5491346910998225,-0.7499411460764706
1744662896622622200,7.908622314453125,0.4933832366466522,1.4732853771284222,0.6346240373305976
1744662896642682400,7.928682373046875,0.46086336131393907,1.2372984004318714,1.1064813786067067
1744662896662743300,7.948743408203125,0.3400970472514629,-0.5662725317686795,-0.019395879338216036
1744662896682803200,7.96880322265625,1.5721996326059102,-0.6480722785770893,-0.1964495872845873
1744662896702864100,7.988864013671875,1.9962094732969997,-0.9093909726679325,-0.5345337603436783
1744662896722924300,8.00892431640625,1.3619704897612332,-1.3925927147790789,-1.0100932806059717
1744662896742985200,8.028985107421875,-0.04800444471240043,-1.4836764227613806,-0.9826122762233018
1744662896763046100,8.049046142578124,-1.2841811476379632,-1.0509089828580618,-0.7395408942237496
1744662896783106300,8.069106201171875,-1.644752243119478,-0.5204530298799276,-0.6872573108874261
1744662896803167200,8.089167236328125,-1.2193301975429058,-0.17385960634648798,-0.9938792279079556
1744662896823227100,8.10922705078125,-0.6794546743124723,-0.06848083103001117,-1.3817051178008317
1744662896843288000,8.1292880859375,-0.8208119409829377,-0.23483459179103372,-1.1867148990117014
1744662896863348200,8.14934814453125,-1.2602923225283622,-0.5790805754154921,-1.307372199741751
1744662896883409200,8.1694091796875,-1.0394289729446171,-0.6460042401313781,-1.7022050457872449
1744662896903469300,8.18946923828125,-0.0762006116271019,-0.6195020176529884,-1.7130948347225785
1744662896923530200,8.2095302734375,0.07542670464515686,-0.26218787814080713,-1.7480897218666969
1744662896943591400,8.22959130859375,-0.859613088542223,0.6222358265310526,-1.348638129979372
1744662896963651000,8.249651123046876,-1.9396815303891897,1.2809177619278431,-0.7309436001397669
1744662896983712300,8.269712158203125,-2.067084505987167,1.6973668119758367,-0.21661113549936561
1744662897003772200,8.289772216796875,-1.3906687609791755,1.4074743498295545,-0.4580766532048583
1744662897023833300,8.309833251953124,-0.36365444844961164,0.46647886310815806,-1.300880207373947
1744662897043893200,8.329893310546876,0.4792968436270952,0.41516836258769035,-1.5025783993691204
1744662897063954400,8.349954345703125,0.9774281515836715,0.39259763433933254,-1.7590505302116273
1744662897084015400,8.370015380859375,1.0683476089149713,0.2572147659033537,-1.6426628696247934
1744662897104075300,8.3900751953125,1.1123346346795557,0.8233119411051273,-0.8662642169944942
1744662897124136200,8.41013623046875,0.8556488610863685,0.46993864817321296,-0.5464563629254698
1744662897144196400,8.4301962890625,0.24564883127212522,0.42316696012616156,-0.5998822481647134
1744662897164257300,8.45025732421875,-0.09184534000456332,0.7064423422202467,-0.41161951099969446
1744662897184317400,8.4703173828125,0.16279636054039,0.8714850203827023,-0.4052309059411287
1744662897204379100,8.490379150390625,0.09917465997934341,0.6526636980205774,-0.34367592865154145
1744662897224438800,8.510438720703124,0.6560638618528842,0.4120598751783371,-0.15430851818025113
1744662897244500000,8.5305,1.1566846485376356,0.27872487918287514,0.10811097675934433
1744662897264559900,8.550559814453125,1.3854092330157757,0.2230447852760553,0.3029424978554249
1744662897284621000,8.57062109375,0.9989169298142194,0.13476619784235955,0.5816378586828709
1744662897304682000,8.590681884765624,0.1264981357127428,-0.4355573628827929,0.011838248766586184
1744662897324742100,8.6107421875,0.03270283068418502,-0.47885494507849213,0.0008325053013861179
1744662897344803000,8.630802978515625,0.4542997650146484,-0.4618783835753798,0.440768083268404
1744662897364863000,8.650863037109374,0.5889701012670994,-0.41734512210488317,0.3675075436811894
1744662897384924000,8.670923828125,0.25290742409825323,-0.3495359067261219,0.5297808301955461
1744662897404984000,8.690984130859375,-0.006436170527338981,-0.34046529604196546,0.5183784155629575
1744662897425045000,8.711044921875,-0.8408265550076961,-0.5504939478784799,0.22506489292681217
1744662897445105200,8.731105224609376,-1.3756535626769064,-0.25739742899388074,0.6281584215130657
1744662897465166000,8.751166015625,-0.6123872172117233,-0.07665186252593993,1.2652711338542402
1744662897485227000,8.77122705078125,0.22374095084667203,-0.1159282263815403,1.1818429821263998
1744662897505287000,8.791286865234374,-0.3821048818975687,-0.17472937491834162,1.2362027141496539
1744662897525347800,8.811347900390626,-2.5336253284156323,0.9057260204195976,0.08670388546288013
1744662897545408000,8.831407958984375,-3.5267087297707795,1.32113286793828,0.4438215525548905
1744662897565469000,8.851468994140625,-2.181924937132001,1.547095001965761,0.732197911049798
1744662897585529000,8.871529052734376,-0.6166968971043825,0.8116074747860431,0.5401617928259075
1744662897605590000,8.891590087890625,-0.007327566409111023,0.5663958658874034,0.6004156974542886
1744662897625650000,8.91164990234375,0.41047874346673485,0.4395876413121819,1.4109211292825639
1744662897645710800,8.9317109375,0.7123778697490691,0.3633212709724903,2.2983131822407246
1744662897665772000,8.95177197265625,-0.16281155810952186,0.5256757329642773,1.7439331867091357
1744662897685832000,8.97183203125,-1.1459949122190474,-0.03391132969111204,0.22622465742118655
1744662897705893000,8.99189306640625,-0.6230196703851223,0.4420280202016234,-0.47593810778371987
1744662897725953000,9.011953125,0.22153028905987737,1.135376487571001,-0.36022103993482885
1744662897746014200,9.03201416015625,0.9173743726372718,0.8039020149752497,-0.11806501921452581
1744662897766073900,9.052073974609375,0.5750029507130384,0.7742509730771183,-0.14543503750339148
1744662897786135000,9.072135009765624,0.1390419754654169,0.7261153032004832,-0.42206367505937814
1744662897806195000,9.09219482421875,0.5765197850167751,0.4558724211588502,-0.4435293281426653
1744662897826256100,9.112256103515625,1.5960335126578806,0.3071656685084104,0.08054905262757092
1744662897846317000,9.132317138671874,2.5109926408469674,0.2845616225123405,0.25850758219286796
1744662897866377200,9.152377197265626,2.5850930653244255,0.03980301807820797,0.1348804536054842
1744662897886438000,9.17243798828125,0.9917278950929641,-0.512005519530177,-0.44263921090252695
1744662897906498000,9.192498046875,0.2767641005039215,-0.4479226311981678,-0.22915702107865363
1744662897926559000,9.21255908203125,-0.14194178856015205,-0.3584925356417894,-0.40163719229809935
1744662897946619100,9.232619140625,-0.5572364078760147,-0.28735037644803524,-0.7804829262692481
1744662897966680000,9.25268017578125,-0.5261117862939835,-0.039186932006478305,-0.3779591969275847
1744662897986740200,9.272740234375,-0.38604046778082846,-0.08887830689251422,-0.667887059180811
1744662898006801200,9.29280126953125,-0.4415595259070396,0.10484919848442077,-0.9049604428745806
1744662898026861800,9.31286181640625,-0.7570984704852104,0.49779754595756526,-0.5142945072501898
1744662898046922000,9.332921875,-0.5322849219709634,0.5065203661173582,-0.519481043042615
1744662898066983000,9.35298291015625,0.2950584666073322,0.07190028408467769,-0.33977366051599384
1744662898087043000,9.37304296875,-0.5950631574451923,-0.24846213512718676,-0.358431380039081
1744662898107104000,9.39310400390625,-1.3445412160545587,-0.29405425800085067,-1.003162604559958
1744662898127164200,9.4131640625,-0.5042892460644245,0.6625684214413166,-0.9848554520402103
1744662898147224800,9.433224853515625,-1.1076350786864757,1.3301473645210264,0.46248394825309513
1744662898167285000,9.453284912109375,-2.01623928489089,0.9418974039971828,0.5697361892912537
1744662898187346000,9.473345947265624,-1.833224312186241,1.1556968065440654,-0.2766097501924261
1744662898207406800,9.49340673828125,-0.19573241545856,0.3729343179702759,-0.3263599425936118
1744662898227466800,9.513466796875,0.7535738034904003,0.23403204323649404,0.0843313841778785
1744662898247528000,9.53352783203125,0.07673428011238574,0.36070027481913564,-0.531248491595313
1744662898267587600,9.553587646484376,-0.8508458447188139,0.7862222736388444,-0.6565787525724619
1744662898287648800,9.573648681640625,-0.44092122800350186,1.0169909311652183,-0.29668351052589714
1744662898307708700,9.593708740234375,0.38378070615530013,1.0686439615130423,-0.1810457001919858
1744662898327769900,9.613769775390624,0.7021446450263261,0.5248825367599725,-0.18760297634834422
1744662898347829800,9.633829833984375,0.4173538899332285,0.36080724232494826,-0.48814785674382
1744662898367891000,9.653890869140625,1.0589046577870844,0.4687205045551061,-0.47405653182081875
1744662898387951900,9.673951904296874,1.94079972076416,0.4027490259975195,0.06731496558841317
1744662898408011800,9.69401171875,2.3138801692068576,0.13978081113398075,0.3502085087580606
1744662898428072700,9.71407275390625,0.6771475664138794,0.31377076586186886,0.12980585375493392
1744662898448132900,9.7341328125,0.026035189488530158,0.25292846688628196,-0.5185684582423419
1744662898468193800,9.75419384765625,0.6263496915906668,-0.08597907831966876,-0.6769868228942155
1744662898488254000,9.77425390625,0.9366139106363057,-0.23510814803540706,-0.47198882216867055
1744662898508315000,9.79431494140625,0.6289642580032349,-0.2640951730668545,-0.35534035522118207
1744662898528374800,9.814374755859374,0.10454349353611468,-0.46762569505572316,-0.7104008705876768
1744662898548435700,9.834435791015625,-0.38135786292254925,-0.5550894589751959,-0.9204759919144213
1744662898568496600,9.85449658203125,-0.4395914407044649,-0.4447755653440952,-0.5412850612347945
1744662898588556800,9.874556884765624,-0.6376034915328025,-0.595876811915636,-0.6831938608407974
1744662898608617700,9.89461767578125,-0.7660837409734725,-0.547599395480752,-0.6028966640824451
1744662898628678000,9.914677978515625,-0.82679452252388,-0.19914953042566774,-0.44617805255316195
1744662898648738800,9.93473876953125,-0.7393155610352754,0.06719196026325225,-0.19761903292275965
1744662898668798700,9.954798828125,-0.718036626163125,0.19963702168166636,0.2323276504714042
1744662898688859600,9.974859619140625,-0.6097703127115964,0.060953942656517025,0.36890243210569024
1744662898708919800,9.994919921875,-0.38984804337024687,-0.20221651678085326,0.35729908807352184
1744662898728980700,10.014980712890624,0.0945043300807476,0.06371171693205833,0.21722038997150955
1744662898749042000,10.0350419921875,0.06258534325063228,0.3665630293726921,0.21800036136806009
1744662898769101800,10.055101806640625,-0.30144027659893036,0.7351268771737813,0.35480011086463925
1744662898789162800,10.075162841796875,-1.0726520281106233,1.1318874764114617,0.709355380122736
1744662898809222700,10.09522265625,-1.7607903596162795,1.3280343178898095,0.7014394924316555
1744662898829283800,10.115283935546875,-1.3761030600100754,1.0675789626300334,0.506521023704484
1744662898849343700,10.13534375,-0.5779483565151691,0.686948829460144,0.5531417955061421
1744662898869404700,10.15540478515625,1.0535744026750327,0.6573129851311444,1.303392920847237
1744662898889465900,10.1754658203125,1.3953846835851669,0.6858972745805978,1.2035291095599532
1744662898909525800,10.19552587890625,0.5303419712096452,0.5460135875940323,0.75133625369668
1744662898929586700,10.215586669921874,0.39576866559088225,0.3757955526202917,0.6998105029903352
1744662898949646600,10.235646484375,-1.065865728971362,0.6695423521071672,0.4182019946625456
1744662898969707800,10.255707763671875,-1.2475707881212235,0.6579688186913728,0.7778460018943995
1744662898989767700,10.275767578125,-1.6603268288701771,0.7871797204941511,0.8708592166345566
1744662899009828900,10.295828857421874,-1.1460469346672295,0.5208680404216051,0.8031633985023945
1744662899029889800,10.315889892578125,-0.1892740330994129,0.5621148275673389,0.9612862873390317
1744662899049949700,10.33594970703125,0.40176059948205944,0.46437166169583793,0.6473351234089583
1744662899070010600,10.3560107421875,1.6358610806554554,0.27999475298821924,0.42019042853340505
1744662899090070800,10.37607080078125,2.68165432793498,-0.372557301351428,1.1208667545728386
1744662899110131700,10.396131591796875,2.2007588169395924,-0.1295043317914009,1.2720786219120024
1744662899130192000,10.41619189453125,1.228619419413805,-0.1381102475732565,0.7869104750987141
1744662899150252800,10.436252685546876,0.25769173576533794,-0.06214928992092609,0.2628528083229437
1744662899170312700,10.456312744140625,0.12381751832664012,-0.41067397377789017,0.4095775568433106
1744662899190373600,10.47637353515625,0.10530687912404536,-0.38643151292502875,0.5084002250472084
1744662899210434600,10.4964345703125,-0.12798749748766422,-0.5254997918754816,0.32278018441069867
1744662899230494700,10.51649462890625,-0.5259416904240847,-0.5192834015786647,0.11203465300910175
1744662899250555400,10.536555419921875,-0.513245874980092,-0.5025310042202472,-0.04386084210164845
1744662899270615600,10.556615478515624,0.05862170031666755,-0.45535599606931204,0.036597025111131366
1744662899290676500,10.576676513671876,0.5640805746823548,-0.43713001902699467,-0.001571194839477539
1744662899310736600,10.596736572265625,0.869171190482378,-0.5512567489445209,-0.08505848374287597
1744662899330797600,10.616797607421875,0.7242664604634046,-0.4959416889578104,-0.05269872174216434
1744662899350858800,10.636858642578124,0.4372895935028791,-0.23398118983209132,0.13668514667358247
1744662899370918700,10.656918701171875,0.314206819191575,-0.02412614099681377,0.2382127447209321
1744662899390979600,10.6769794921875,-0.11285130315423011,-0.21164953103661535,-0.03374254899546504
1744662899411039500,10.69703955078125,-0.27272973042130466,-0.7835130146801471,-0.027741134889889506
1744662899431100700,10.7171005859375,-0.5048252526372671,-0.6087877314150333,-0.2981122464210726
1744662899451160600,10.73716064453125,-0.9769120187550783,0.0897159267604351,-0.16826540306862442
1744662899471221800,10.7572216796875,-1.3923767339408397,0.43190322428941724,-0.21687347622998057
1744662899491282700,10.77728271484375,-1.2615426148504019,0.5413707302242518,-0.40964616510011254
1744662899511342600,10.797342529296875,-0.9810685539126396,0.5157686714559793,-0.676498674051091
1744662899531403500,10.817403564453125,-0.5801268695980311,0.5309247395336628,-0.7764150923084467
1744662899551463700,10.837463623046874,-0.07321721190214156,0.6518243245869875,-0.5965152924822643
1744662899571524600,10.857524658203126,0.1219230828821659,0.7622434321582316,-0.2163530325524509
1744662899591584800,10.877584716796875,-0.1086474217236042,0.8213210595488548,0.1151212025812827
1744662899611645700,10.897645751953124,0.09973872360289096,0.6926186917901038,0.2057281964299269
1744662899631706600,10.91770654296875,0.29651626420021054,0.50599488093853,0.16181942353332415
1744662899651766500,10.9377666015625,0.3737193308681249,0.48032326406538484,0.3615735505223274
1744662899671827500,10.957827392578125,0.5928992574095726,0.4407938022315502,0.39621140438970176
1744662899691887600,10.9778876953125,1.1106436128526926,0.3378150737941265,0.3889117854334414
1744662899711948500,10.997948486328125,1.0501777459740638,0.2498059509515762,0.33187972892839457
1744662899732008700,11.0180087890625,0.9155582631260156,0.331931860974431,0.32892858750522136
1744662899752069600,11.038069580078124,-0.13360709093511103,0.2749514981240034,-0.2372815465517342
1744662899772130800,11.058130859375,-0.7959954796344041,0.2295639579117298,-0.2687249882919714
1744662899792190500,11.0781904296875,-0.16975334007143975,0.2903577415704727,-0.00390822295229882
1744662899812251600,11.098251708984375,1.0687520980626344,0.2293804180383682,0.3936478009793907
1744662899832311600,11.1183115234375,2.2084639844894407,0.177274383226037,0.625908231433481
1744662899852372700,11.138372802734375,2.3210282873958348,-0.0006932429611682891,0.3960698039619252
1744662899872432600,11.1584326171875,1.5728011056303977,-0.14865414568036794,-0.009243008108995854
1744662899892493800,11.178493896484374,-1.029658689558506,-0.5349783988386392,-0.5661426217786968
1744662899912554800,11.1985546875,-1.0484037220388651,-0.20539748490452764,0.13363876471500843
1744662899932614700,11.21861474609375,-0.5108902517646551,-0.039698973181843754,0.3633954687198624
1744662899952675600,11.238675537109375,0.19290625212192533,-0.21027911946624517,-0.1009926691867411
1744662899972735700,11.25873583984375,0.8166518986940383,-0.40069910773038864,-0.36965189876612276
1744662899992796700,11.278796630859375,0.7070014374077319,-0.31522447180151936,-0.29031145474333314
1744662900012856800,11.29885693359375,0.03020049247443676,-0.3691992230951786,-0.42686720288358626
1744662900032917800,11.318917724609374,-0.2500362525761127,-0.4215560177981853,-0.856482170105353
1744662900052978400,11.338978515625,-0.7604606403946876,-0.4951645671054721,-0.25488235916672275
1744662900073038600,11.35903857421875,-0.743022014337778,-0.16024638379663228,-0.28434624446230006
1744662900093099500,11.379099609375,-0.04541325917541981,-0.3733692022562027,-1.1518206226978451
1744662900113159700,11.39915966796875,0.329886034360528,-0.3540519228458404,-1.2672634767152369
1744662900133220600,11.419220703125,-0.1610492246121168,-0.47203912758380173,-0.9871452434778213
1744662900153280800,11.43928076171875,-1.1766852340370415,-0.2817339978709817,-0.6421126395203173
1744662900173341700,11.459341796875,-1.815851737102866,0.12385843485891818,-0.5506804103612899
1744662900193402600,11.479402587890625,-1.1139911697149276,-0.5080903919130564,-0.8207605030566454
1744662900213462300,11.499462158203125,0.6265057589352131,-0.5081844999372959,-0.03499203759990632
1744662900233523500,11.5195234375,0.6782441294789314,-0.9069511783003806,0.6933996860999614
1744662900253583400,11.539583251953125,-0.49243806475102897,-0.28309710291773077,0.8002529909484088
1744662900273644500,11.55964453125,-0.9273673588633536,0.32187253151386974,0.8057121331371366
1744662900293705500,11.57970556640625,-0.3713116852045059,0.714748690533638,1.078127098520845
1744662900313765400,11.599765380859376,-1.0194266338795424,0.934218832193315,1.310023444902897
1744662900333826300,11.619826416015625,-1.2980927686125039,1.3819675681293009,0.7810025662291794
1744662900353886500,11.639886474609375,-0.2136129400640726,1.4084180604204535,0.5116643779423088
1744662900373947400,11.659947509765624,1.967374423956871,0.44865912877917286,0.2873465770557523
1744662900394007600,11.680007568359375,0.8661772693634032,0.16737258241474628,-0.49378538770675656
1744662900414068500,11.700068359375,0.5840811601817607,0.5165142291262745,0.10492321356870234
1744662900434129400,11.72012939453125,0.04405892195701599,0.5630787041634321,0.630243849484995
1744662900454189300,11.740189208984376,-0.1252607028722763,0.21160686093866823,0.6366138959735631
1744662900474250200,11.760250244140625,-0.2217524073779583,0.1581532109096646,0.4962175832897424
1744662900494310400,11.780310302734375,-1.3040917167663573,0.0958262263342738,-0.12458875842746346
1744662900514371300,11.800371337890626,-0.8958236350864172,0.2980591097280383,0.15613752370569853
1744662900534432500,11.8204326171875,-0.20476561674177646,0.3508765076801181,0.16762345190327613
1744662900554492400,11.840492431640625,0.6993821945756673,0.15602350540459156,0.12710059511791913
1744662900574553600,11.8605537109375,1.3686585892230272,-0.10402794522941113,-0.01820639555901289
1744662900594613200,11.88061328125,1.8273866920739412,-0.23724282197654245,-0.03518858308531344
1744662900614674400,11.90067431640625,3.266332284966111,-0.2633955003648996,-0.0394197909142822
1744662900634734300,11.920734375,1.025061424896121,-0.17178747624754906,-0.45485239392872895
1744662900654795500,11.94079541015625,1.3010808445125817,-0.4013181164115667,0.21705451361900194
1744662900674856400,11.9608564453125,1.71893859231472,-0.29066607686728235,0.5578079241536558
1744662900694916600,11.98091650390625,1.9381705413043497,-0.587732376165688,1.219205840510875
1744662900714977500,12.0009775390625,0.6282762757390737,-0.7884411187320948,0.9843421687558292
1744662900735037400,12.021037353515625,-0.5572942755430936,-0.31434944253265856,0.4970896168839186
1744662900755098400,12.041098388671875,-1.2402449752777813,-0.4284972152382135,-0.12498129227585159
1744662900775158500,12.061158447265624,-0.0005190554380416869,-0.7091305583909153,0.12228314836621283
1744662900795219500,12.081219482421876,1.2562164513915777,-0.7444970553264021,0.31954196967445314
1744662900815280400,12.1012802734375,0.934421953549981,-0.8082236775666475,0.5993645444335416
1744662900835340500,12.121340576171875,-0.350108153656125,-0.8066030906274915,0.8273397353164851
1744662900855401200,12.141401123046874,-1.2497650832951068,-0.40120238107740874,0.35310013854634015
1744662900875461400,12.16146142578125,-0.9549158755242824,-0.4439052122503519,0.40739940908662975
1744662900895522300,12.181522216796875,-0.29636896468400953,-1.0842886898905038,0.6111513187412172
1744662900915583500,12.20158349609375,0.7944856595933437,-1.6830805124700068,0.3928557738188654
1744662900935643400,12.221643310546876,1.6313099932223558,-1.3978794230103493,-0.7839092474561185
1744662900955704600,12.24170458984375,-0.18698972155451773,-0.5356850858032703,-1.0311490742467344
1744662900975764200,12.26176416015625,-2.530242115718126,0.699080581280589,-0.8220968662269413
1744662900995825400,12.281825439453126,-3.4936417419493195,0.9140750388309359,-0.9717531746871769
1744662901015886300,12.30188623046875,-2.6659464711934326,0.7978846543818712,-1.1817453669708222
1744662901035946500,12.321946533203125,-1.4287252276509999,0.9601216274738311,-1.0705492106124759
1744662901056007400,12.34200732421875,-0.21389818674623964,0.9096662824779749,-0.9725636142872274
1744662901076067300,12.3620673828125,1.0743675998568534,0.34876141522228715,-1.0573555286489427
1744662901096128500,12.38212841796875,1.8439619792997837,-0.15035656568408012,-1.4853892180286348
1744662901116188200,12.402188232421874,1.5539847614794968,-0.2231985145330429,-1.3185066110879182
1744662901136249300,12.422249267578126,0.9658931966125964,0.1700859330266714,-0.9897343831881881
1744662901156310300,12.442310302734375,0.007425766086578369,0.48898821655809876,-0.861511980966106
1744662901176370400,12.462370361328125,-0.8761714246332645,0.6922030967265367,-0.7586915848955511
1744662901196430800,12.482430908203124,-1.1035066005796192,0.9129711692422627,-0.8852737456299364
1744662901216491000,12.502490966796875,0.8105810543477535,0.44146950953602787,-0.7284092593565583
1744662901236552000,12.522552001953125,0.47108664916455745,1.3980910199344156,-0.7821966713845729
1744662901256612900,12.54261279296875,1.0583002621531485,0.9544324759215116,0.037908039211039427
1744662901276672800,12.5626728515625,1.585007091730833,0.38649697937667365,0.350527475046739
1744662901296734000,12.58273388671875,1.8975790031969546,0.016061492484807968,-0.21457473430093377
1744662901316793900,12.6027939453125,2.1563959435999394,-0.11522504654824733,-0.5688947334984317
1744662901336855000,12.62285498046875,2.005752377668023,-0.3230138105034828,-0.5329290650933981
1744662901356915000,12.6429150390625,1.090742980596423,-0.6116892980754375,-0.45361236727237697
1744662901376976000,12.662975830078125,0.012418752068281172,-0.5003694422721863,-0.13924736184440553
1744662901397036800,12.683036865234374,-0.9869979439616203,-0.30784839007556436,0.33137093915604054
1744662901417097000,12.703096923828125,-1.396059806367755,-0.20235884786099195,0.31329408826082944
1744662901437158000,12.723157958984375,-0.9387725499749183,-0.41037937474548813,-0.012990158748067915
1744662901457218000,12.743218017578124,-0.13612638027966023,-0.6507298073485493,0.06111088678389787
1744662901477279000,12.763279052734376,0.14022738585770128,-0.6355369143918156,0.08779248441718518
1744662901497340000,12.78333984375,0.03668108666539192,-0.7052879114881158,-0.3052710138682276
1744662901517399800,12.80339990234375,-0.2333803013294935,-0.5591404879316687,-0.3078978552404791
1744662901537460700,12.823460693359374,-1.3525216934144497,-0.2697445771306753,0.24651984195299445
1744662901557521000,12.84352099609375,-1.8581711219161747,-0.37293607153594494,0.21335180490985511
1744662901577581800,12.863581787109375,-0.8808598747104406,-0.43679304215759035,0.525914071764797
1744662901597642000,12.88364208984375,0.2173983038216829,-0.29051468569785355,0.7034322736840695
1744662901617703000,12.903702880859376,0.9646750529944896,-0.47450376413166523,0.8642174405325204
1744662901637764000,12.92376416015625,-0.2298386831998825,0.12362316479831933,1.1269118799559772
1744662901657823700,12.94382373046875,-2.0362644203096627,0.8457064360037445,1.349155285721272
1744662901677885000,12.963885009765624,-2.6635364874422547,1.1871131045490502,1.2759272601641714
1744662901697944800,12.98394482421875,-1.5645254447162151,1.203251461662352,1.1766159681931136
1744662901718006000,13.004006103515625,0.4947679690033197,1.0631509170547127,1.0931148242942987
1744662901738067000,13.02406689453125,2.0076982510387897,0.7821919952094555,0.9999757912173867
1744662901758126800,13.044126953125,1.8841174640774725,0.2452531099528074,0.7054759814061224
1744662901778188000,13.06418798828125,1.0245371087610722,0.16989187175929546,0.372445000083372
1744662901798248000,13.084248046875,-0.2640413970530033,0.46037996171116824,0.4303955962054431
1744662901818308900,13.104308837890626,-0.8048486481755971,0.8751610785469413,0.42284320806451137
1744662901838369800,13.124369873046875,-1.3090741813540459,1.0305983084961772,-0.21079949007853865
1744662901858430000,13.144429931640625,-0.9522107082188129,0.7986006936967373,-0.8163276351757347
1744662901878491000,13.164490966796874,-0.552422285592556,0.6242784382745623,-0.6253147955849766
1744662901898551000,13.184551025390626,0.16050269664525985,0.8149959481805562,-0.3262839182153344
1744662901918612000,13.204612060546875,1.1429477996081112,0.6627057840853929,-0.08274517443235962
1744662901938673000,13.2246728515625,2.084866246393323,0.145295190641284,-0.7226210313439368
1744662901958732800,13.24473291015625,3.23188757905066,-0.510263644298911,-0.5168418536454439
1744662901978794000,13.2647939453125,2.5411720905333754,-0.5681804112166166,-0.1846204716725275
1744662901998854000,13.28485400390625,1.3838468060046434,-0.27511574877500533,-0.7532549467995763
1744662902018914800,13.304914794921874,1.4003700707823037,-0.28881285021603104,-0.806532582674548
1744662902038975000,13.32497509765625,1.4655752411425114,-0.49125440792441366,-0.7543155617684125
1744662902059036000,13.345035888671875,0.562500612014532,-0.787756059077382,-0.6015000586248934
1744662902079096800,13.365096923828125,-0.7076981875002384,-0.7203244448393583,-0.6311459128912538
1744662902099156700,13.38515673828125,-0.9072317488074302,-0.4191711684882641,-0.7208305677305906
1744662902119218000,13.405218017578125,-0.03088847473859787,-0.2684562908858061,-0.6239086551140993
1744662902139277800,13.42527783203125,0.30931320193111894,-0.2892781296402216,-1.0458720846693963
1744662902159339000,13.445339111328124,-0.29564766467213627,-0.1382236448198557,-1.1966054477766155
1744662902179400000,13.46539990234375,-1.4032552708297967,-0.23977789341211317,-1.254465369940549
1744662902199460600,13.485460693359375,-1.444217395815253,-0.4007148898214102,-1.3096066807955502
1744662902219521500,13.505521484375,-0.479388613563776,-0.9832885680496692,-1.6830540628544985
1744662902239581700,13.525581787109376,0.5322141948223114,-0.5838999583959579,-2.3244544624522328
1744662902259642600,13.545642578125,-0.4097095126599073,0.1694938123524189,-1.9221099256023764
1744662902279703600,13.56570361328125,-2.2954349964559078,1.071270802885294,-1.5152344673246145
1744662902299763500,13.585763427734374,-3.1507284682333467,1.516613354462385,-0.9799324625547975
1744662902319824400,13.605824462890626,-1.6965794609904288,1.3438771991878746,-1.0418293120846152
1744662902339884500,13.625884521484375,0.6755892310559749,0.8199725675493478,-1.484635477051884
1744662902359945500,13.645945556640624,2.2393360926151273,0.2469792030930519,-1.4513907945759594
1744662902380005600,13.666005615234376,2.0881904223799705,0.08730068231225013,-1.5631902505896984
1744662902400066600,13.686066650390625,0.2829711384505033,0.26250001282989976,-1.6705127073198556
1744662902420127700,13.706127685546875,-1.3905015877187252,0.6133171915382146,-1.4544605574101208
1744662902440187400,13.7261875,-1.9167232641279697,0.7642524338930845,-1.0577001773681491
1744662902460248600,13.74624853515625,-1.582241134148836,0.7236445291727781,-1.0778549305159597
1744662902480308500,13.76630859375,-0.6656243018805981,0.7354191381186247,-0.7627126571051775
1744662902500369700,13.78636962890625,0.251434428936243,0.6516355240166187,-0.23710496614212168
1744662902520430600,13.8064306640625,0.7421534148097038,0.6063701488792896,0.11350141022657044
1744662902540490800,13.82649072265625,0.9837012405037879,0.6081453418582677,0.1352126812345348
1744662902560551700,13.8465517578125,1.106588199982047,0.47304421297311783,0.13807303910171612
1744662902580611600,13.866611572265626,1.169362343803048,0.38190497541129587,0.15363829076848923
1744662902600672500,13.886672607421875,1.2373498383581638,0.24013737437427043,0.2091515584747307
1744662902620733400,13.9067333984375,0.9304448666125535,-0.017418752312660216,0.12905941930180415
1744662902640793600,13.926793701171874,0.1359352416217327,-0.1395785665601492,0.060412839783448725
1744662902660854500,13.9468544921875,-0.35148411818444725,-0.09484159921109676,0.3003224150175229
1744662902680914700,13.966914794921875,-0.50414837628901,-0.1679372305601835,0.664474693454057
1744662902700975600,13.9869755859375,-0.7087035651504993,-0.32260873683393,0.7879067195944488
1744662902721035500,14.007035400390626,-0.936632030814886,-0.5341951395064592,0.7259076517991722
1744662902741096400,14.027096435546875,-1.283564477044344,-0.8590425951778888,0.6678527185197919
1744662902761157600,14.04715771484375,-1.4203911145478487,-0.786169082146883,0.6881454918988049
1744662902781217500,14.067217529296874,-1.421529763188958,-0.5866495493650437,1.221367767785117
1744662902801278500,14.087278564453126,-1.1573287916600703,-0.1894189945280552,1.4805641359597443
1744662902821338600,14.107338623046875,-1.340717273852229,0.4781318915009498,1.4424252517014742
1744662902841399600,14.127399658203124,-1.8434248036831615,0.90730656760931,1.2042889880165457
1744662902861460500,14.14746044921875,-1.7849989181995392,1.3593681983083485,1.0564793303363025
1744662902881520400,14.167520263671875,-0.7705436429917812,1.4894593900769948,1.088767442739755
1744662902901581600,14.18758154296875,1.0456237359315157,1.3211504035949706,0.9330279419083147
1744662902921641500,14.207641357421876,1.9386890122205018,1.0000234297513961,0.8572072695095092
1744662902941702700,14.22770263671875,2.376776478102803,0.7596773810625076,0.8064758109860122
1744662902961763600,14.247763671875,1.3989724789440632,0.6322954482525587,0.7814242257073521
1744662902981823500,14.267823486328124,1.0377198309391735,0.4726981760144233,0.8297833290763199
1744662903001884400,14.287884521484376,0.8523065649211407,0.4475479526668787,0.492227015816234
1744662903021944600,14.307944580078125,1.1596166103363037,0.40978316241800783,0.11843281134730205
1744662903042005500,14.328005615234375,1.4303449378073214,0.5666396115154028,0.3725769193673506
1744662903062066400,14.34806640625,1.2208066998362541,0.9128244542479514,0.5849045688612386
1744662903082126600,14.368126708984375,0.25087562600970265,0.6613882717460393,0.2064460441093892
1744662903102187500,14.3881875,-0.2830155621141195,0.4988245509177446,0.23266364096011966
1744662903122247400,14.408247314453124,-0.47004327759146686,0.3745668876081705,0.16297334280880166
1744662903142308400,14.428308349609376,0.7029062770485878,0.1246896249860525,0.1716553743004799
1744662903162368500,14.448368408203125,1.7915081539630888,-0.4262608344882726,0.23907858603633939
1744662903182429400,14.468429443359375,1.5660235743194817,-0.6257528947412967,-0.09366995248268357
1744662903202489900,14.48848974609375,1.3819967942237854,-0.4916448685467243,0.10456521217757836
1744662903222550000,14.508550048828125,0.7877209877640009,-0.31502047366201874,0.17606272414764387
1744662903242611000,14.52861083984375,0.31853929543793197,-0.06526829872429371,0.08396781156249344
1744662903262671000,14.548671142578126,-0.5961041909307241,0.09705927526056767,-0.127933356147632
1744662903282731800,14.568731689453125,-0.7321908237218856,0.2625438519716263,-0.2882434893628582
1744662903302792700,14.588792724609375,-0.24454583846628664,0.2923223196417093,-0.6290363003261387
1744662903322852900,14.608852783203124,0.31721710692346095,-0.12386954077482223,-0.7958794520393013
1744662903342913800,14.628913818359376,0.15196633896827696,0.09538754265606403,-0.514871649551019
1744662903362974000,14.648973876953125,-0.21334581356048582,0.19238135146498678,-0.15459171903580426
1744662903383035000,14.669034912109375,-0.47626083693206306,-0.8122294060766696,-0.30913090416677297
1744662903403096000,14.689095947265624,0.17875906882584094,-1.2192466109126805,-0.9102169020980596
1744662903423155700,14.70915576171875,-1.2095593296349048,0.4564326853901148,-1.3127536005191505
1744662903443217000,14.729216796875,-3.493974919426441,1.5128905345469712,-0.8073059051346033
1744662903463276800,14.74927685546875,-2.9480414113312956,1.0445260038226842,-0.21233948606215416
1744662903483338000,14.769337890625,-0.7836825260281562,0.5794786348223686,-0.5011235485751182
1744662903503399000,14.78939892578125,0.6498235061585903,0.3074333795338869,-1.019836456789449
1744662903523459000,14.809458984375,1.8285463835030793,-0.9470078788787126,-1.469482331583649
1744662903543520000,14.82952001953125,0.3209825969368219,-0.4032359327316284,-1.8666703624531626
1744662903563580000,14.849579833984375,-0.0455745872169733,0.08985621201395988,-1.153267241309583
1744662903583640800,14.869640869140625,0.3704787415117025,0.17042729381024838,-1.1593185772377996
1744662903603701800,14.88970166015625,0.8372334989517927,0.12121581139564513,-0.9564331482194364
1744662903623762000,14.909761962890625,0.6476730501264333,0.1302092651903629,-0.8289017970014363
1744662903643822800,14.92982275390625,0.6428852313280106,0.1980138043940067,-0.15190163970161227
1744662903663883000,14.949883056640624,-0.11200959163308143,0.15411270334720611,-0.2522279904667288
1744662903683944000,14.96994384765625,-0.18643501028120515,0.26341128245592116,-0.19632232590941712
1744662903704003800,14.99000390625,0.7191337737500667,0.16623539507836102,-0.161412504966557
1744662903724064800,15.010064697265625,1.5870815599173307,-0.1434644680827856,-0.4540063715586439
1744662903744126000,15.0301259765625,2.1774849088579415,-0.49385173094123597,-0.29246969222314656
1744662903764185900,15.050185791015625,1.6874468909859657,-0.5676823985666036,-0.5386198971461504
1744662903784247000,15.0702470703125,0.9014099107861518,-0.7304319973558187,-0.42850978245884175
1744662903804307000,15.090306884765624,0.23193477869629858,-1.0330278737306595,-0.31566103658787903
1744662903824368000,15.1103681640625,0.0720306324660778,-0.9420645772576332,-0.09552139816880226
1744662903844428800,15.1304287109375,0.14731646733582018,-0.7188967501237988,0.11544665340967476
1744662903864489000,15.150489013671875,-0.031978608062863345,-0.32234161033034325,0.3400719128102064
1744662903884550000,15.1705498046875,-0.6601011545449494,0.02645692203193903,0.9384016708359122
1744662903904609800,15.19060986328125,-0.8701046719402075,0.10095102200210093,1.4042695624388755
1744662903924671000,15.2106708984375,-0.9991501540482044,0.14635142169594764,1.44502038276121
1744662903944732000,15.23073193359375,-0.3784796771377325,-0.1833236002624035,1.3631596995458006
1744662903964791800,15.250791748046876,0.20684885275661943,-0.2743383346617222,1.1246640279639513
1744662903984852700,15.270852783203125,-0.27478023321032524,0.3014095891997218,1.2621069707348942
1744662904004913000,15.290912841796874,-0.3316571356862783,0.39924043335467574,1.1463921679083258
1744662904024973800,15.310973876953126,-2.1362311074495315,1.2535302810475228,0.21447426960114388
1744662904045035000,15.331034912109375,-3.804610309872031,1.4488678519695997,0.283607317462191
1744662904065095000,15.351094970703125,-2.9159716178536415,1.2955267175167797,-0.026671094505582003
1744662904085155800,15.37115576171875,0.2897515923708677,1.0495870866045356,-0.005278524924814701
1744662904105215700,15.3912158203125,3.1108453706562518,0.23762276120483874,0.5266218547079712
1744662904125277000,15.41127685546875,1.4760118794828652,-0.6834142255932092,0.42055261290930207
1744662904145336800,15.4313369140625,0.03650806818604469,0.0431847694709897,0.9426758410237729
1744662904165397800,15.451397705078126,-0.0494961445748806,0.5120011356160045,1.1833715068679302
1744662904185459000,15.471458984375,0.6819435685187578,0.13860270726531743,0.6316149917077273
1744662904205520000,15.491519775390625,0.7839636810570955,0.059821431495249267,0.24073176007084546
1744662904225581000,15.5115810546875,-0.1163940903276205,0.229779938749969,0.38864129792898894
1744662904245641000,15.531640869140626,-0.9635667994916438,0.1790060293242335,0.45251295466311275
1744662904265702000,15.551701904296875,-1.3873562754303217,-0.10893266840577125,0.3034463557243347
1744662904285763000,15.57176318359375,-0.04549509223997593,-0.07881751612722873,0.12005926177166401
1744662904305823000,15.591822998046876,1.8541922814130782,-0.47148441631048915,0.1575901336668059
1744662904325884000,15.6118837890625,2.894547721552849,-0.5023021639004349,0.38242180235963313
1744662904345943800,15.63194384765625,2.8947330149918793,-0.5507827016919851,0.2097554609183222
1744662904366005000,15.6520048828125,1.7615853093862532,-0.6681354079186916,-0.12850534734930844
1744662904386066000,15.67206591796875,0.49537353368103504,-0.6988938265368342,-0.49526842933874576
1744662904406126000,15.6921259765625,0.22648469659686088,-0.6814595843940973,-0.3516938884776085
1744662904426187000,15.71218701171875,0.08867372423112392,-0.5199266679182648,-0.17470294356914237
1744662904446247000,15.732246826171876,0.06610591859221458,-0.09340309084057807,-0.4339139065247029
1744662904466307800,15.752307861328125,-1.0148650250524283,-0.1916846013724804,-0.5256116182195022
1744662904486368800,15.77236865234375,-2.36152688652277,-0.4982724699929356,-0.4673662404019385
1744662904506429000,15.792428955078124,-2.418933365830779,-0.45864948465675115,-0.943728784142807
1744662904526489900,15.81248974609375,-2.328057163119316,0.6131845050692558,-1.1887565609071402
1744662904546550000,15.832550048828125,-2.2760101650178433,1.111831069071591,-1.2617602031238377
1744662904566610700,15.852610595703124,-2.4301374814122916,1.2703528210327029,-1.359930508366227
1744662904586670800,15.8726708984375,-2.6766367920339107,1.1528808723405002,-1.066970621473342
1744662904606731800,15.892731689453125,-1.2487509378165005,0.7384604055106639,-1.1327481848940253
1744662904626793000,15.91279296875,0.24514146627187727,0.9458388350993394,-1.1111768429465592
1744662904646852900,15.932852783203124,0.9898363822579384,0.44767742426544427,-0.77526424177289
1744662904666914000,15.9529140625,0.9217869283825159,-0.0786424518212676,-0.43341392111331223
1744662904686973700,15.9729736328125,0.7719827358841895,-0.10272095428407192,-0.4551740636311471
1744662904707035000,15.993034912109374,0.8516197517007589,0.2916512885123491,-0.2131094475213438
1744662904727095800,16.013095703125,0.8499860130190848,0.306224588266015,-0.0005110182620584964
1744662904747156000,16.033156005859375,0.3476514081537723,0.186782216283679,0.16029278022162616
1744662904767217000,16.053216796875,-0.07269991002976894,0.15793606102764607,0.34054639845415946
1744662904787277000,16.073277099609374,0.34398820947110653,0.1152680089071393,0.6253661604460329
1744662904807338000,16.093337890625,1.0163193155139685,0.11911883911639451,0.7480186535812914
1744662904827398000,16.11339794921875,1.910551297494769,-0.018233868087828158,0.7967110805578529
1744662904847458800,16.133458740234374,2.366019521766901,-0.038109658163785934,0.7290102209243923
1744662904867519700,16.153519775390624,1.1637667157530784,0.09133300656825304,-0.04865163830844685
1744662904887580000,16.173579833984373,2.2296581636875867,-0.5745578372940421,1.1256125608604401
1744662904907640800,16.193640869140626,1.0303928490519523,-0.4455050486624241,-0.04526616058861836
1744662904927701000,16.213700927734376,1.041314640560746,-0.5563090638980269,-0.11907395879505202
1744662904947762000,16.233761962890625,0.30264205360412594,-0.24198037189245222,-0.2562055705945007
1744662904967823000,16.253822998046875,0.010498013138771056,0.057551732997596264,-0.2037047095119953
1744662904987882800,16.2738828125,-0.6674713910520076,-0.1149406766489148,0.14664538140753283
1744662905007944000,16.29394384765625,-2.0716011066287754,-0.2751969973176718,0.39998774459064007
1744662905028003800,16.31400390625,-3.051253948524594,-0.04379471806287765,0.5835325498556718
1744662905048065000,16.33406494140625,-2.846603482595086,0.46368426395356654,0.6244228151813149
1744662905068126000,16.3541259765625,-1.6593904248028992,0.49427463252842424,0.7970483496882022
1744662905088186000,16.37418603515625,-0.8472428517907857,0.9138333390295506,0.33973018670044836
1744662905108247000,16.3942470703125,-0.8195259928256273,0.9821832371562719,-0.48752983444333076
1744662905128307000,16.414306884765626,-1.0676438445597887,0.5060784675687551,-0.4297981417689472
1744662905148368000,16.434367919921876,-1.2698971862196922,-0.4992796012088656,-1.6463453575298188
1744662905168428000,16.454427978515625,-0.6401496688842773,-0.44732846469730136,-2.3333558540493247
1744662905188489000,16.474489013671874,0.2244967376500368,-0.13831103084236382,-1.7307427196159957
1744662905208549400,16.49454931640625,1.4662597162753344,-0.14474837041348218,-1.390816645017266
1744662905228609500,16.514609619140625,2.3796739531099793,-0.6325047070890665,-0.28929975695014
1744662905248670500,16.53467041015625,2.7280834861546754,-0.5532657506793737,0.2210429439343512
1744662905268730400,16.55473046875,1.8710288499236105,-0.6566960222765803,0.4552927215747535
1744662905288791300,16.574791259765625,0.8351298046708107,-0.4354337365031242,-0.05504194213375449
1744662905308852500,16.5948525390625,-1.3186492344290017,-0.22693097905963658,-0.5845668978720903
1744662905328912400,16.614912353515624,-1.9853578244149683,0.7913077602095901,-0.9842454303830861
1744662905348973600,16.6349736328125,-1.9783844782710074,1.0786207272566855,-1.2107476626366376
1744662905369033500,16.655033447265627,-2.14373169233799,0.739538263875246,-1.5702008600041268
1744662905389094700,16.6750947265625,-2.0256611932307482,0.6106755909882485,-2.0618916135191916
1744662905409155600,16.695155517578126,-1.2855197027653456,1.0777763853870332,-2.2938442201331255
1744662905429215500,16.715215576171875,-0.0037111294776201245,1.8901494377180932,-2.3553531663239
1744662905449276400,16.7352763671875,0.7273883918762206,2.0858504351250824,-1.8643673462077974
1744662905469336600,16.755336669921874,0.6395218923747539,1.8829557268217205,-1.5024983198702335
1744662905489397500,16.7753974609375,-0.20160686044991016,1.7624536166533826,-0.5426332975059748
1744662905509457700,16.795457763671877,-1.237405367937684,2.1596093526884914,-0.02104980229139328
1744662905529518600,16.8155185546875,-1.279313833862543,1.6754519172877071,-0.6204530347675085
1744662905549579500,16.83557958984375,0.6102408528327942,-1.681481845101714,-0.2613110953062773
1744662905569639400,16.855639404296873,-0.18749007229208944,-1.2031576458990574,0.9640209729999303
1744662905589700400,16.875700439453126,-1.1714964332222937,1.1690358883276581,2.150797977462411
1744662905609760500,16.895760498046876,-0.8861644108593464,3.2731200454100966,1.5928484528809785
1744662905629821400,16.915821533203125,-1.1436369509160518,2.486205990114808,0.5427253597036004
1744662905649882600,16.935882568359375,1.5742700091391801,2.692149418464303,0.6489072680965066
1744662905669942500,16.955942626953124,3.9711879425168033,1.519968510109186,0.14415902621820567
1744662905690003500,16.97600341796875,2.010903184559941,-0.4396656749844551,1.7116043039038777
1744662905710063400,16.9960634765625,-2.2049913399428127,-1.5134329708606005,5.885807512363791
1744662905730124500,17.01612451171875,-0.6401379784464836,2.9570740280926224,2.3144204135634006
1744662905750185500,17.036185546875,0.1482090322613716,4.075480676162242,-0.15085983903110026
1744662905770245600,17.05624560546875,1.867521718585491,2.448627662348747,-1.10966680370979
1744662905790306600,17.076306640625,3.039785044527054,1.3418620599731803,-1.5380876657761633
1744662905810366500,17.096366455078126,1.4896072741150854,-0.172554076705873,-2.212392556110024
1744662905830427400,17.116427490234376,0.7809972324669361,-1.3385516202509402,-1.9961393306702375
1744662905850487600,17.136487548828125,0.6823135708749294,-0.676773180143535,-2.1782053320869803
1744662905870548500,17.156548583984375,0.8687772227287291,0.0329044907361269,-0.5559040632937103
1744662905890609400,17.176609375,1.9831079996615648,0.1476829625606537,0.7447299872994423
1744662905910669600,17.196669677734373,1.8378320982426404,-0.16569646589606998,1.0243508654739708
1744662905930730500,17.21673046875,-0.5913701481461524,-0.3176864780008793,1.6768616379551589
1744662905950790400,17.236790283203124,-1.4181792837172746,0.1566550813063979,2.1485160040050744
1744662905970851300,17.256851318359374,-1.2128086868196726,0.8333870526567101,1.5260912307731807
1744662905990912500,17.27691259765625,-1.5193933405697344,0.04168780891150236,1.1097012174360454
1744662906010972400,17.296972412109376,-1.153463348403573,-0.2833253587156534,0.6528392007179558
1744662906031033600,17.31703369140625,-0.2963742253810167,-0.6401227808773517,0.569211252101697
1744662906051093500,17.337093505859375,0.11213643288314341,-0.8188625604808331,0.7044560637738555
1744662906071154700,17.35715478515625,-0.30193595116138455,-0.6305711086779833,1.5455037872515618
1744662906091214300,17.37721435546875,-1.0479676687091588,0.3542927458643913,2.191916462053358
1744662906111275500,17.397275634765624,-2.683959682267904,-0.672394234406948,1.494261529661715
1744662906131336400,17.41733642578125,-2.4790654707103967,-1.2024281625807285,1.0161398672938347
1744662906151396600,17.437396728515626,-1.8788585206359625,-1.3658777263328432,1.4961717471972107
1744662906171457500,17.45745751953125,-1.6036229448735713,-1.3247224168628453,2.0139707554370165
1744662906191517700,17.477517578125,-4.3058711480259895,-0.05602379277795553,2.875098924717307
1744662906211578000,17.497578125,-6.12348638767004,0.17979338030964134,0.9425304412037133
1744662906231639000,17.51763916015625,-5.99508037250936,-0.30941373969614505,-1.6310256233230231
1744662906251699200,17.53769921875,-4.53047251509428,-0.3880412862092256,-2.6575708570361134
1744662906271760100,17.557760009765627,-2.7814707929491993,-0.45876785033941264,-2.649164555479586
1744662906291820000,17.577820068359376,-1.811829057458043,0.2928799535244703,-2.366142271363735
1744662906311881000,17.597880859375,-2.011400028166175,0.7841507280617952,-1.7285580690532922
1744662906331941000,17.617941162109375,-1.961777334602177,1.6786960137754678,-1.633989441564679
1744662906352002000,17.638001953125,-1.8452657553747296,1.6543074224501848,-2.1030244188964367
1744662906372063200,17.658063232421874,-2.3845158401831985,1.5559826572984456,-2.420005378976464
1744662906392123100,17.678123046875,-3.5143653810262676,1.433646901962161,-1.3752788841456174
1744662906412184300,17.698184326171877,-5.147013929376006,0.0832715729266405,-0.19724515810906887
1744662906432244000,17.718243896484374,-6.80613547410965,-2.2298171536415814,0.3265069133162498
1744662906452305200,17.73830517578125,-6.17749621027708,-2.757222486877441,-2.1850100436657667
1744662906472365000,17.758364990234377,-5.631829828685522,-2.4685937610566615,-4.894077279183268
1744662906492426200,17.77842626953125,-5.39029486247301,-1.0442296512246132,-6.2004258349657055
1744662906512487200,17.798487060546876,-4.964837161061167,0.9716787942767142,-5.065305367982387
1744662906532547300,17.81854736328125,-4.014526148983836,3.0915093865454195,-3.1012609652310608
1744662906552608300,17.838608154296875,-2.5068039569854736,4.734489359295368,-1.9296004274882375
1744662906572668200,17.858668212890624,-1.2095984926015138,5.667521904313564,-1.5706722769081591
1744662906592729000,17.87872900390625,-1.2064736385792494,6.293914266002178,-0.18522300414294005
1744662906612789200,17.898789306640627,-2.0163047513425347,6.807382259300351,1.7867399166479705
1744662906632850200,17.91885009765625,-3.7316485340356826,6.274891001102328,3.0452342498436566
1744662906652911000,17.9389111328125,-5.486694212520122,5.122396789991855,3.188298612692952
1744662906672971300,17.95897119140625,-5.486942634323239,4.167274285979569,2.5253625269830224
1744662906693032000,17.979031982421876,-3.884109378522634,3.0527175913363696,1.942830934330821
1744662906713092000,17.999092041015626,-2.013034935891628,1.5810703368037937,1.904792003315687
1744662906733153000,18.019153076171875,-0.8431342474281788,0.3601061083182692,1.3606217055007814
1744662906753214200,18.039214111328125,0.1436988613605499,-0.8800009197935461,-0.043462198172882195
1744662906773274000,18.059274169921874,1.1905448325634003,-1.807037731528282,-1.2842993671901524
1744662906793335300,18.079335205078124,1.9318845929026602,-2.0730694256156683,-1.6081111962035297
1744662906813395000,18.09939501953125,2.0062720176279543,-2.0311969077870247,-1.5617235390380024
1744662906833456000,18.1194560546875,1.5584347266256808,-1.5471780040740966,-1.4951372895829378
1744662906853516000,18.13951611328125,0.7353343824446201,-1.1623156401619315,-1.4926555557698011
1744662906873577200,18.1595771484375,0.2223877826720476,-1.0387266698941588,-1.4479868313513695
1744662906893638100,18.17963818359375,0.2504588619023561,-0.8391963234573602,-0.9361633173245936
1744662906913698300,18.1996982421875,0.3059042702704668,-0.5083107566654682,-0.546582911914587
1744662906933759200,18.21975927734375,0.35730537168383597,-0.08624240543097257,-0.10563600148055702
1744662906953819100,18.239819091796875,0.07922609692811966,0.23809768524020908,0.2861553579771891
1744662906973880000,18.259880126953124,-0.3474479945361614,0.3950099561780691,0.4598796840388328
1744662906993941000,18.27994091796875,-0.632580110412836,0.36255218629613517,0.40849451084695754
1744662907014001200,18.300001220703123,-0.6121814655065536,0.2581963242866099,0.5071620250217617
1744662907034062000,18.32006201171875,-0.2706628610193729,0.0794843094728887,1.0374616183944045
1744662907054122200,18.340122314453126,-0.14536124161481856,-0.09053557258024811,0.738401149604097
1744662907074183200,18.36018310546875,-0.6126251176208257,-0.3641610827974975,-0.03490837790444493
1744662907094243000,18.3802431640625,-0.6493979742228985,-0.797162331456691,-0.7228099049795419
1744662907114304000,18.400303955078126,-0.2761789940923452,-1.01125297203511,-1.0044396387584507
1744662907134365200,18.420365234375,0.14232523491978644,-1.0121937600165605,-0.9417807918801904
1744662907154425000,18.440425048828125,0.2805786903560161,-0.966862041644752,-0.7704746694087982
1744662907174486300,18.460486328125,0.0815595083117485,-0.8622343769565224,-0.837713975945115
1744662907194546200,18.480546142578124,-0.16094284162819383,-0.6578077829107641,-0.6668909608155489
1744662907214607600,18.500607666015625,-0.2611597041368484,-0.35961277184337376,-0.2790466584831476
1744662907234667800,18.520667724609375,-0.17398294046521187,-0.11153203724920749,0.14863544097989798
1744662907254728700,18.540728759765624,0.009046645286679268,0.0815945796251297,0.45918943675234913
1744662907274789600,18.56078955078125,-0.019796002838015556,0.31468364292308687,0.6724694916002452
1744662907294849500,18.580849609375,-0.31590368623733517,0.22887582951709626,0.6014399990007281
1744662907314910700,18.60091064453125,-0.3732797704070806,-0.01478694250434637,0.4685064234130084
1744662907334970600,18.620970703125,-0.23610651142299174,-0.08024886410459875,0.26368454643934963
1744662907355031800,18.64103173828125,0.03593991290926933,-0.03983852778300643,0.12334785498827695
1744662907375091700,18.661091796875,0.1700689818918705,0.09280556333884596,-0.19702903114035725
1744662907395152600,18.681152587890626,0.2565817286968231,0.16160174392834306,-0.22138547376170753
1744662907415213600,18.701213623046876,0.139328975713253,-0.17782573349848388,-0.3502272499911487
1744662907435273700,18.721273681640625,-0.2277998708486557,-0.263866625007987,-0.3669371233820915
1744662907455334700,18.741334716796874,-0.48436640197634695,-0.20609533097557722,-0.2608494691438973
1744662907475394800,18.761394775390624,-0.49409518430829047,-0.1668725970033556,-0.11218450980857014
1744662907495455700,18.781455810546873,-0.23539690184891224,-0.21470891860723496,-0.11756751802116631
1744662907515516700,18.8015166015625,0.001709142005443573,-0.20746508495882152,0.019345190330594775
1744662907535576600,18.82157666015625,0.07989245188236237,-0.20312888238541782,-0.1761428949780762
1744662907555637500,18.841637451171874,0.021666472885012625,0.05065554374307394,-0.09083148678690195
1744662907575697700,18.86169775390625,-0.06890577844381332,-0.02088226370476186,-0.12800810188427567
1744662907595758600,18.881758544921876,-0.16983634217977522,-0.0033272447265684604,-0.027344518521428107
1744662907615818800,18.90181884765625,-0.25180852294564243,-0.19886603730916977,0.23650150208994744
1744662907635879700,18.921879638671875,-0.11079261705875396,-0.418942766559869,0.17367665099501609
1744662907655940900,18.94194091796875,-0.08274374966025352,-0.4597862336017191,0.08347147941291332
1744662907676000500,18.96200048828125,-0.1027870052576065,-0.324463570920378,0.07528773456588388
1744662907696061700,18.982061767578124,-0.3280219940543175,-0.2521225573308766,0.0829495013654232
1744662907716121600,19.00212158203125,-0.28538930550813674,-0.47591509223431344,-0.024110505036264655
1744662907736182800,19.022182861328126,-0.07372925307750701,-0.4943912446454167,-0.0989781144939363
1744662907756242700,19.04224267578125,0.2658539994329214,-0.23054507790356873,-0.07045198497250675
1744662907776303900,19.062303955078125,0.3211024239242077,-0.041850744388252495,-0.01587532226294279
1744662907796364800,19.08236474609375,0.03526186751723289,0.037599078293144704,0.10587781087979674
1744662907816424700,19.1024248046875,-0.32077275357842444,0.12866839242391287,0.042524990388005966
1744662907836485600,19.122485595703125,-0.44000119054913517,0.08626111013144254,0.09870864990279078
1744662907856545800,19.1425458984375,-0.22304887692928313,-0.2269560404356569,0.002875555436313152
1744662907876606700,19.162606689453124,-0.0524807133436203,-0.39456418517194686,-0.18284619200900196
1744662907896667000,19.1826669921875,-0.2199474037826061,-0.3572641628906131,-0.31868148038759825
1744662907916727800,19.202727783203127,-0.4844236851215362,-0.42909700776226817,-0.2714791458383202
1744662907936788500,19.22278857421875,-0.6250035376787185,-0.4614038979314267,-0.19286489719823002
1744662907956848600,19.2428486328125,-0.4398036221504211,-0.3137785838421434,-0.10280161830484867
1744662907976909600,19.26290966796875,-0.412164504596591,-0.09492840071171521,0.04046557364016771
1744662907996969700,19.2829697265625,-0.399672687292099,0.01242474341765046,0.06993102983832358
1744662908017030700,19.30303076171875,-0.0640881490290165,-0.05163176836408674,0.3093416973732412
1744662908037090800,19.3230908203125,0.1683177543103695,0.01938274586200714,0.45076991038806735
1744662908057151700,19.34315185546875,0.2022492500066757,0.050613823493197554,0.39170901493653654
1744662908077212700,19.363212646484374,0.24479309122562407,0.08433890989720821,0.179356231001392
1744662908097272600,19.3832724609375,0.3726970020830631,0.06279021817296743,-0.08580459853559733
1744662908117333800,19.403333740234373,0.44480888309180733,0.09166567258872091,-0.09999087173305451
1744662908137393700,19.4233935546875,0.37354105169177054,0.18776940069012343,-0.04301204325258732
1744662908157454800,19.443454833984376,0.28958032745718953,0.1066106551989913,-0.05508000912182033
1744662908177514800,19.4635146484375,0.3012181582808494,0.06294621245227754,-0.12501111202538012
1744662908197575700,19.48357568359375,0.2649737094670534,0.07175561491698026,-0.15415902670696377
1744662908217636900,19.503636962890624,0.12611527387499807,0.04725296875797212,-0.2022275496315211
1744662908237696800,19.52369677734375,0.21592472413778305,0.044962519733235236,-0.26341807752288876
1744662908257758000,19.543758056640623,0.2708464008927345,-0.025838424807414412,-0.20736359734572468
1744662908277817600,19.563817626953124,0.1733878971815109,-0.09995492363683879,-0.1783295548347756
1744662908297878800,19.583878662109374,0.15029226827621459,-0.1913463823940605,-0.2630389785448089
1744662908317938700,19.603938720703123,0.10125906503796576,-0.10475041428506374,-0.23352782004140316
1744662908338000000,19.623999755859376,-0.08476736444234848,0.12186185421422123,0.015033208882994949
1744662908358060800,19.644060791015626,-0.033959552747011186,0.17734394133090972,0.2602353558335453
1744662908378121000,19.664120849609375,0.15490882216095925,0.24382702267244458,0.15615900488514453
1744662908398182000,19.684181884765625,0.35046412748694417,0.348143429454416,-0.04447692817337811
1744662908418241800,19.70424169921875,0.41492286339402196,0.35968189155682917,0.05819456094577908
1744662908438302700,19.724302734375,0.2896048773765564,0.32143253266140814,0.24143764331787823
1744662908458363000,19.74436279296875,0.04046528137922287,0.30216683730781074,0.16517028659749775
1744662908478423800,19.764423828125,-0.01830605654120445,0.15559461246803402,-0.07169906242415308
1744662908498484700,19.784484619140624,0.045184126594662664,0.11225874408856033,-0.2143650005403906
1744662908518545000,19.804544921875,0.013811667731404303,0.032606822963804,-0.2519223585836589
1744662908538605600,19.82460546875,-0.10414075795412063,-0.18406462788805364,-0.3096625998906791
1744662908558665700,19.844665771484376,-0.19254384855031967,-0.1995623490102589,-0.36847861720304936
1744662908578726700,19.8647265625,-0.1631809759438038,-0.26581249837875365,-0.5308538662545382
1744662908598786800,19.884786865234375,-0.137255092048645,-0.28783406831175085,-0.4922814494172111
1744662908618847700,19.90484765625,-0.1508148308455944,-0.4244838879436254,-0.43530236520841714
1744662908638908000,19.924907958984374,-0.07736731731891631,-0.40648733574301005,-0.36015232208017256
1744662908658968600,19.944968505859375,-0.05317161821722984,-0.28230755997523665,-0.4465206554457545
1744662908679029800,19.96502978515625,-0.10888824474215507,-0.21699951376244425,-0.36527737347632644
1744662908699089700,19.985089599609374,-0.13415478794574737,-0.09637523851916194,-0.2974217982051894
1744662908719150800,20.00515087890625,-0.1604652872443199,0.0880187674537301,-0.027463943650014696
1744662908739210800,20.025210693359377,-0.17572481569647788,0.23432152770236134,0.1369308285303414
1744662908759272000,20.04527197265625,-0.23814123212099073,0.18674056909903883,0.3094478976940736
1744662908779331600,20.06533154296875,-0.20022037452757357,0.08332432602718472,0.26370832917373627
1744662908799392800,20.085392822265625,-0.14666940160393713,0.04397387402206659,0.11300326057923957
1744662908819453700,20.10545361328125,0.044102176576852795,0.17995485448166726,0.18629267920106649
1744662908839513900,20.125513916015624,0.003397241222858429,0.4387551360107958,0.15325071622300893
1744662908859574800,20.14557470703125,-0.1278875442445278,0.12549553454145787,0.1011283147977665
1744662908879635000,20.165635009765627,0.07769231148958206,-0.30967019867524503,-0.013593622800242155
1744662908899695900,20.18569580078125,0.4932955583631992,-0.33287162604257464,-0.14618837662134318
1744662908919755800,20.205755859375,0.6129518653571605,-0.25838044868186116,-0.2721220285854302
1744662908939816700,20.225816650390627,0.5841431195020675,-0.22975202782973647,-0.3330071255231276
1744662908959877600,20.245877685546876,0.4248012833297252,-0.33162425632998344,-0.23205749176051466
1744662908979937800,20.265937744140626,0.172059863448143,-0.2921244589820504,-0.21826145998965948
1744662908999998700,20.285998779296875,0.24645313339233396,-0.16571663190126418,-0.11068090031258761
1744662909020059000,20.306058837890625,0.2368494387447834,0.06548574086725711,0.1125649604935199
1744662909040119800,20.326119873046874,0.07186813538074494,0.10185425445213914,0.24530531506408004
1744662909060179700,20.3461796875,-0.19048223984539508,0.05110372590199112,0.14139880425725132
1744662909080240600,20.36624072265625,-0.3384118706434965,0.1224057518325746,0.016532470997422933
1744662909100300800,20.38630078125,-0.4685276123315096,0.2196044355638325,-0.13105273027718067
1744662909120361700,20.40636181640625,-0.5074041632145643,0.18411796551048754,-0.11151567063629626
1744662909140423000,20.4264228515625,-0.36048341719806193,0.21224574336409568,-0.17222689057812093
1744662909160482800,20.44648291015625,-0.07918518039584159,0.18037907124310731,-0.09454378530830145
1744662909180544000,20.4665439453125,-0.013115502160787582,-0.03686141166836023,-0.1991997993081808
1744662909200603600,20.486603759765625,-0.02664718390703201,-0.4416537800617516,-0.4169704435735941
1744662909220664000,20.5066640625,0.25193419515192506,-0.5901277468696237,-0.2160762614376843
1744662909240724000,20.526723876953124,0.40993806071877475,-0.5021686006486415,-0.1360370945610106
1744662909260785200,20.54678515625,0.40008535974621773,-0.5654325738132,-0.2457673430852592
1744662909280846000,20.56684619140625,0.36013913380503654,-0.5418967999249696,-0.41757483920753
1744662909300906200,20.58690625,0.2997650368630886,-0.30820947847291824,-0.7292614922717213
1744662909320967200,20.60696728515625,0.18577683863341807,-0.030688714382797477,-0.603726648633182
1744662909341027000,20.627027099609375,0.06448328582644462,0.11505436615645885,0.017702537690103052
1744662909361088000,20.647087890625,-0.17601707664132119,0.3226359171018004,0.5751508347511292
1744662909381148200,20.667148193359374,-0.3704962771683931,0.38834742954894896,0.7258679043106734
1744662909401209000,20.687208984375,-0.46754853816628456,0.4045854476444423,0.7055681897342204
1744662909421269200,20.707269287109376,-0.1983539961338043,0.09546586858928204,0.418126920132339
1744662909441330200,20.727330078125,0.05597030902504921,-0.19779665451198816,0.04455459651947021
1744662909461391000,20.74739111328125,0.0734820003181696,-0.24464286909997462,-0.21280264659449458
1744662909481451000,20.767450927734377,-0.08785597810745238,0.015856179171055553,-0.27107567960396406
1744662909501512000,20.787511962890626,-0.06317220322787762,0.44839594779834147,-0.14599325590804219
1744662909521572000,20.807572021484376,0.05219079048633575,0.7465085412792861,0.14912658549770713
1744662909541633000,20.827633056640625,0.32402737146019933,0.7936155987605452,0.31546105703637
1744662909561693200,20.847693115234375,0.5688204626858234,0.6288749722845852,0.27270240402296186
1744662909581754000,20.867754150390624,0.6854442701160908,0.48675724263563747,0.21708032391369342
1744662909601814000,20.88781396484375,0.8889484886199236,0.2739160175964236,-0.12877718656063078
1744662909621875000,20.907875,0.7629261537253856,0.40897316120937466,-0.2812561512261629
1744662909641936100,20.92793603515625,0.5545826784968376,0.6751967246070504,-0.28289690417051316
1744662909661996000,20.94799609375,0.5594377173125743,0.7915367466598748,-0.3200352330841124
1744662909682057200,20.96805712890625,0.7466331905722617,0.5959886017270386,-0.37168870182335373
1744662909702117000,20.9881171875,0.7364706929981708,0.2835786028243601,-0.26207864561267197
1744662909722178300,21.00817822265625,0.5384662409543991,0.16126549771130083,-0.3574363045871258
1744662909742238000,21.028238037109375,0.25191022975444793,0.13866101332381367,-0.471786906388402
1744662909762299100,21.048299072265625,0.12781506353020666,0.1131111231341958,-0.7516353827737271
1744662909782359000,21.068359130859374,0.019227263039350507,0.07956073570996522,-0.6795484170105308
1744662909802420200,21.088420166015624,-0.08654898716211318,0.04368424342572689,-0.5300835394691675
1744662909822481200,21.108481201171877,-0.418982952439785,0.21938114820197224,-0.5191419107487425
1744662909842541300,21.128541259765626,-0.4106862487375736,0.18164689922183752,-0.72412347179614
1744662909862602200,21.148602294921876,0.25828034930825233,0.4226198476374149,-0.7960065124850719
1744662909882662100,21.168662109375,0.6890379106938839,0.654287938221544,-0.27840686274226756
1744662909902723000,21.18872314453125,0.5332055439472199,0.4387691645361483,-0.4407243537245318
1744662909922783200,21.208783203125,0.33112580528855323,0.1906565734989941,-0.9911104938469827
1744662909942844200,21.22884423828125,0.4309609750032425,0.398340123514086,-0.7042750811837614
1744662909962904300,21.248904296875,0.568144170859456,0.4747894492052495,-0.19577884841617196
1744662909982965200,21.26896533203125,0.21111410898566244,0.35502851279303427,-0.2356574159486219
1744662910003026200,21.289026123046874,0.005636544582247734,-0.01976078539416194,-0.4093620143964886
1744662910023086000,21.309086181640627,-0.1042249291062355,-0.22806451313421128,-0.3562150922290981
1744662910043147000,21.32914697265625,-0.39112756178677077,0.013939678025245665,0.10219459232240914
1744662910063207200,21.349207275390626,-0.9820084651112556,0.11486293523758649,0.34696766367331144
1744662910083268000,21.36926806640625,-1.3203361646026373,-0.24175357739925382,0.17679989758208392
1744662910103328300,21.389328369140625,-1.1978460954874752,-0.6479571277648211,-0.23815343401543795
1744662910123389200,21.40938916015625,-0.8850976584106683,-0.5737580652184784,-0.7712653083298355
1744662910143449000,21.429448974609375,-0.5692179375708103,-0.3432536115862429,-1.0648070136986671
1744662910163510000,21.449510009765625,-0.14259645307660102,-0.5423306612975896,-0.7353931999597698
1744662910183571200,21.4695712890625,0.3268435979247093,-0.38971769498884673,-0.32133736519124356
1744662910203631000,21.489631103515624,0.5776280385196209,-0.1115051492422819,0.3503224905265495
1744662910223692300,21.5096923828125,0.731850631982088,0.3163406163498759,0.6865975318044424
1744662910243752200,21.529752197265626,0.45203824982345103,0.6816013309523463,0.6266186447251588
1744662910263813400,21.5498134765625,0.21533084989786147,0.25466888081282374,0.038312742987833916
1744662910283873300,21.569873291015625,0.10471125131845474,-0.2608522456228733,-0.5215776499956846
1744662910303934200,21.589934326171875,-0.06847323224544524,-0.3592842705413699,-0.5541770203053951
1744662910323994000,21.609994140625,-0.11692951237857341,-0.3369726316206157,-0.7281372374821454
1744662910344055300,21.63005517578125,-0.17621815217137335,-0.4184329173415899,-0.6947341495741158
1744662910364116200,21.6501162109375,-0.22018939584493635,-0.3915567469842732,-0.37982700009346004
1744662910384176000,21.670176025390624,-0.3771808694988489,-0.48843394367620346,-0.09034458005279301
1744662910404237300,21.6902373046875,-0.48377778843343255,-0.527669829390943,0.29151655621677636
1744662910424297200,21.710297119140623,-0.22000702501535416,0.010339753837138414,0.08449877663403749
1744662910444358400,21.7303583984375,-0.3018435967028141,-0.07345876557305454,0.07428425661176442
1744662910464418000,21.75041796875,-0.2454845806211233,-0.05403656448349356,0.1320873340219259
1744662910484479200,21.770479248046875,-0.07600771940350533,0.02761208341643214,0.4562586439974606
1744662910504539100,21.7905390625,0.22447277225255965,0.1588166432544589,0.7310071668952703
1744662910524600300,21.810600341796874,0.19019874672889708,0.12882570187747477,0.6069844813853502
1744662910544660200,21.83066015625,-0.08356792552471161,0.01052840827703476,0.2773709803558886
1744662910564721400,21.850721435546873,-0.49329380479753016,-0.14783639955669642,0.20764424091801045
1744662910584782300,21.8707822265625,-0.6436907024919987,-0.3731120126247406,-0.2557404555670917
1744662910604842200,21.89084228515625,-0.5342079989880323,-0.4347653357222676,-0.42097631821408865
1744662910624903200,21.910903076171873,-0.2901262709021568,-0.30307533045485613,-0.09634513564184308
1744662910644963300,21.93096337890625,-0.030155484288930893,-0.23011311622709035,-0.027311639165133236
1744662910665024300,21.951024169921876,-0.057146367067098615,-0.13095453059971332,0.11582125887572765
1744662910685084400,21.97108447265625,-0.25818448771834374,-0.2688843070395291,-0.006294570099562406
1744662910705145300,21.991145263671875,-0.3251934926301241,-0.3970663041859865,0.040553982575982805
1744662910725205200,22.011205322265624,-0.3109609691381454,-0.4349406922891736,0.0816951173901558
1744662910745266200,22.03126611328125,-0.17472060708999632,-0.4665376075580716,0.21968232310563324
1744662910765326300,22.051326416015623,-0.11408698242902755,-0.4481761675678193,0.002948620672523975
1744662910785387300,22.07138720703125,-0.07329086166024208,-0.6314568054713309,0.032650515975058074
1744662910805448200,22.0914482421875,-0.15296587139964102,-0.7007708724550903,0.21297084276825187
1744662910825508400,22.11150830078125,-0.24041969844698904,-0.7112878825552761,0.3028254473470151
1744662910845569300,22.1315693359375,-0.06931728185415267,-0.7312554425679146,0.30711759158298374
1744662910865629200,22.151629150390626,0.15482582005262374,-0.6889573928035795,0.263875977358222
1744662910885690000,22.171690185546876,0.4093488626539707,-0.6686733141876757,0.23747853042855857
1744662910905750300,22.191750244140625,0.3458452355146408,-0.5986993219904602,0.2420078444212675
1744662910925811200,22.211811279296874,-0.10290040250420569,-0.5211873355038463,0.1751565142892301
1744662910945871400,22.231871337890624,-0.48650166043937204,-0.5156009136736392,0.07584536844864487
1744662910965932300,22.251932373046873,-0.5983639525562524,-0.43150501875206826,0.20432941728159784
1744662910985992200,22.2719921875,-0.5915542725414037,-0.3093567488119006,0.6047130293220281
1744662911006053000,22.29205322265625,-0.43195115508437154,-0.2513512806974351,0.8468307638585567
1744662911026114300,22.3121142578125,-0.05378185907006264,-0.4417348824739456,0.7579876744098961
1744662911046174200,22.33217431640625,0.1795885053873062,-0.48187823842242355,0.6031496524628251
1744662911066235400,22.3522353515625,0.14833002829253672,-0.351671165189147,0.43346097512543197
1744662911086295300,22.37229541015625,0.09281915347278118,-0.33598201314806936,0.20764709046222268
1744662911106356200,22.392356201171875,0.28011224188804623,-0.590929857032746,0.314634470019117
1744662911126416100,22.412416015625,0.657200172406435,-0.41968876262158156,0.66659051656425
1744662911146477300,22.432477294921874,0.6708814917564392,-0.08955752132833003,1.1094531609591096
1744662911166537200,22.452537109375,0.24879355903863906,-0.06401917544603347,1.2270223594807088
1744662911186598400,22.472598388671877,-0.014602525848150253,-0.31861864428445696,0.8451873075004667
1744662911206658000,22.492657958984374,-0.14741057536005972,-0.11749328374117612,0.7362019590593875
1744662911226719200,22.51271923828125,-0.39858781466484067,0.16301014942154288,0.8520786013841628
1744662911246780200,22.5327802734375,-0.5205097285032272,0.30257571036964653,0.7702456829585135
1744662911266840300,22.55284033203125,-0.19938918440043926,0.5233898139841854,1.1593860895160586
1744662911286901200,22.5729013671875,-0.3540145134449005,1.0744637537077069,1.352673961366713
1744662911306961200,22.592961181640625,-0.7490799992024898,1.5022927142955362,1.218915406196937
1744662911327022000,22.61302197265625,-1.030000050342083,1.8220348096519707,1.0429483792424201
1744662911347082200,22.633082275390624,-0.645861032268405,1.5187209942661224,-0.05015117441751062
1744662911367143200,22.65314306640625,-0.3343640565574169,1.5631243457466364,-0.35796551609300076
1744662911387203300,22.673203369140627,-1.5533774432361125,2.510748018436134,0.6188079709742218
1744662911407264300,22.69326416015625,-2.2869629361867903,4.0663691489458085,1.4582127495504915
1744662911427324200,22.71332421875,-2.8020015398025513,4.566825977240502,2.1095213797003027
1744662911447385000,22.733385009765627,-2.4230057298362255,4.679231582453847,1.8895295522540807
1744662911467446000,22.753446044921876,-1.669040296679735,4.425645528441668,1.4956607289351522
1744662911487506200,22.773506103515626,-0.9542372456103563,3.6396658313870427,1.0718157964821904
1744662911507567000,22.793567138671875,0.40642683772742744,3.272944981104135,0.30305852545052764
1744662911527627300,22.813627197265625,0.7420043617278337,3.4099645108312364,0.03882102130353451
1744662911547688200,22.833688232421874,0.2089239054650068,3.456674824079871,-0.2869625461742282
1744662911567748000,22.853748046875,-0.39711657306849957,2.5136317571789024,-0.5183671635165811
1744662911587809000,22.87380908203125,-0.5243985526353121,0.8810825775504112,-1.0257377167224884
1744662911607869200,22.893869140625,0.17728548914194106,0.3778337804496288,-2.3953823943734167
1744662911627930000,22.91393017578125,0.6184498782515525,1.0924240655511617,-2.991564618976414
1744662911647990300,22.933990234375,-0.3490571832984686,1.6795967620074748,-2.2904259361222383
1744662911668051200,22.95405126953125,-1.438829565297067,1.3247393679976462,-1.7179700395435094
1744662911688111000,22.974111083984376,-1.977001499480009,1.1275000551074743,-1.5914496919989585
1744662911708172000,22.994172119140625,-1.8470318882644174,1.1229343546271324,-1.1359610094606876
1744662911728233200,23.014233154296875,-1.5623241352796553,1.5006506461769342,-0.15856676014661789
1744662911748293000,23.034293212890624,-1.6190554918050766,2.0923294218808413,0.828370393538475
1744662911768354300,23.054354248046874,-1.8947794356063008,1.8862299261867999,1.582112539333105
1744662911788414200,23.074414306640627,-2.158803881524503,1.5377975967884063,1.3591688763439655
1744662911808475100,23.09447509765625,-2.0267939966529607,0.32600480901300904,0.8906851031541824
1744662911828535000,23.11453515625,-2.1068997990250584,-0.8142009984105825,0.2575198863297701
1744662911848596200,23.13459619140625,-2.4799428380668163,-1.6809008303433655,-0.7969839061498641
1744662911868656000,23.15465625,-2.701594707679748,-1.7503502141445875,-1.7979443244904278
1744662911888717000,23.174717041015626,-3.0245594183444977,-1.487871828624606,-1.5305886883229016
1744662911908777200,23.194777099609375,-3.6414918777704237,-1.1601347889915108,-0.5801560956925154
1744662911928838100,23.214838134765625,-3.1513252650827166,-1.5194599760651588,-0.20225041905045507
1744662911948898000,23.23489794921875,-3.565848315504193,-2.097213979052007,-0.7308961077362298
1744662911968959000,23.254958984375,-3.178748109537363,-2.9376965429276227,-1.599610202100873
1744662911989020200,23.275020263671873,-3.012624650400877,-2.9735183824151754,-2.0402797934308645
1744662912009080000,23.295080078125,-3.541862459760904,-2.330007420404255,-1.552376741760969
1744662912029141200,23.315141357421876,-3.389247886016965,-1.6592863799065352,-0.7467626621708273
1744662912049201200,23.335201171875,-2.407925649604201,-1.1667644362643361,-0.3068263535514474
1744662912069262000,23.355261962890626,-1.741622717809677,-0.9752116445779799,-0.3608700784280896
1744662912089322000,23.375322021484376,-1.3108324231982231,-0.7271162969365715,-0.8168103041261434
1744662912109383200,23.395383056640625,-0.6286608911424875,-0.5815683005779981,-1.1628604145631194
1744662912129443000,23.415443115234375,0.11636018805801868,-0.6376578520685434,-1.4875330981895327
1744662912149504300,23.435504150390624,0.7498398776590823,-0.5901020279064774,-1.6461780381388962
1744662912169564200,23.455564208984374,0.9800824654847383,-0.6624170302718877,-1.6213500324830412
1744662912189625000,23.475625,0.5319628504097461,-0.8378940086871385,-1.6530252736851572
1744662912209685200,23.495685302734376,0.23668577261567114,-1.013362219274044,-1.9470472368516027
1744662912229746400,23.515746337890626,-0.5780190836638212,-1.1762117713063955,-2.1804712311923504
1744662912249806000,23.53580615234375,-1.867120736569166,-0.08466039693653583,-1.6931263979271054
1744662912269867300,23.5558671875,-2.428811785766482,1.0231342562258243,-0.9834229350190609
1744662912289927200,23.57592724609375,-2.015188899055123,1.1040692028984427,-0.15065364893451333
1744662912309988400,23.59598828125,-0.32625381533801556,0.7841460518866777,0.11726517407372593
1744662912330049300,23.61604931640625,1.757937892794609,0.5128565834015607,-0.019092823004722596
1744662912350109400,23.636109375,2.4501895048379896,0.09434943177998065,-0.3324996143924072
1744662912370170400,23.65617041015625,2.1304162836909293,0.06355272697806358,-0.22638733716960996
1744662912390230300,23.676230224609377,0.9118319360792636,0.11699994726628064,-0.39584008685927835
1744662912410291200,23.696291259765626,0.38953532415926456,0.6392109267294407,-0.7137685203898698
1744662912430351400,23.716351318359376,0.8760703023463488,1.0753852524667977,-0.37257374102957547
1744662912450412300,23.736412353515625,1.7238392238378524,1.0588578960359096,0.189927345908992
1744662912470472400,23.756472412109375,1.987186208885908,0.8596306241989136,0.37372623553294687
1744662912490533400,23.776533447265624,1.1999229017615318,0.8361834053769707,0.09185701217604801
1744662912510593300,23.79659326171875,0.016980945417284964,0.9123723265662789,-0.17069533362928777
1744662912530654200,23.816654296875,-0.7131891861319541,1.3035504494965076,-0.4091204607255757
1744662912550714400,23.83671435546875,-0.5457546443969011,1.1507114193469286,-0.038035551747959105
1744662912570775300,23.856775390625,0.00876899738907814,0.915022256553173,0.3720798200327903
1744662912590835500,23.87683544921875,-0.1257271513402462,0.962074515107274,0.8300878649808466
1744662912610896400,23.896896484375,-0.36775428498387336,1.2016858197808264,0.9990462552823126
1744662912630957300,23.916957275390626,-0.4259837711125612,1.1559960817515849,0.747151076966524
1744662912651017200,23.937017333984375,-0.2862228337228298,0.8587655318021774,0.2721341756809503
1744662912671078100,23.957078125,-0.02262216617465019,0.5405675971478223,-0.1352445924764499
1744662912691138300,23.97713818359375,0.3069265990555286,0.4734077855885029,0.14634290959592908
1744662912711199200,23.99719921875,0.7170505377352238,0.35237376050055025,0.4564346581514924
1744662912731259400,24.01725927734375,0.9552636660486459,0.18645546854734418,0.5726936508573591
1744662912751320300,24.0373203125,0.7434452081859111,0.10099486114382743,0.5346693328894675
1744662912771380200,24.057380126953124,0.46263738524913783,-0.016893851655721662,0.2844061396896839
1744662912791441200,24.077441162109373,0.29529578249454497,-0.16622691951096058,-0.0820523333299905
1744662912811501300,24.097501220703126,0.22696692715585232,-0.26136370227634903,-0.29870529867708684
1744662912831562200,24.117562255859376,0.18221359319388866,-0.23827508763372895,-0.23155235524997114
1744662912851622400,24.137622314453125,0.05865151093304157,-0.23206278899013993,-0.205174416738376
1744662912871683300,24.157683349609375,-0.23591011206805704,-0.212881118658185,-0.1790633124694228
1744662912891743200,24.1777431640625,-0.43947161371707916,-0.21699965989291667,-0.2083710208225995
1744662912911804200,24.19780419921875,-0.5879220535188913,-0.27457857315838335,-0.3932628933150321
1744662912931864300,24.2178642578125,-0.45419455107450485,-0.39509821898341174,-0.4614711910139769
1744662912951925200,24.23792529296875,-0.2057131267249584,-0.43752340225875375,-0.3670296239711344
1744662912971986200,24.257986083984374,-0.1254430737018585,-0.35930852819979187,-0.20884178013950586
1744662912992046300,24.27804638671875,-0.1406359666585922,-0.2534370009303093,-0.03379815164022147
1744662913012107300,24.298107177734376,-0.038897009149193765,-0.2124883199483156,0.09484174534156918
1744662913032167200,24.318167236328126,0.19998948838114738,-0.24307751947939393,0.08586469469238073
1744662913052228000,24.33822802734375,0.2006505826383829,-0.4295394177675247,-0.140319119261764
1744662913072288300,24.358288330078125,0.2861158662170172,-0.4963789113312959,-0.6029349502662197
1744662913092349200,24.37834912109375,0.21472177808880805,-0.3210965787053108,-0.21272983708661047
1744662913112409300,24.398409423828124,0.12047756024897098,-0.1456651929974556,0.519609272532165
1744662913132470300,24.41847021484375,0.14381050504148005,0.1910556558191776,0.5900484710883349
1744662913152530200,24.4385302734375,-0.0005067804783582687,0.12039046648740767,0.8246485234711318
1744662913172591000,24.458591064453124,0.03454524368047714,0.05508534288406372,0.6744544548723846
1744662913192651300,24.4786513671875,-0.037490064960718154,0.03544073121547699,0.18052076300242914
1744662913212712400,24.49871240234375,-0.36810733620524405,-0.0017488894939422606,0.28658671686546877
1744662913232772400,24.5187724609375,-0.3000952917307615,0.28243513187766073,0.6587789660304785
1744662913252833300,24.538833251953125,-0.003446341061592102,0.4461871857076883,0.7068737193748355
1744662913272893400,24.5588935546875,0.21032617347836494,0.41293665801286694,0.5208000166866928
1744662913292954400,24.578954345703124,0.5751888286739587,0.3790186063200235,0.345019086888805
1744662913313015600,24.599015625,0.6781032597035169,0.16298633015453814,0.4446352800905704
1744662913333075500,24.619075439453123,0.6263537832438946,0.43427638316154477,0.32553474381584674
1744662913353136600,24.63913671875,0.2163748059928417,0.559887799167633,0.41705687974803146
1744662913373196300,24.6591962890625,0.08644143513441085,0.9067237992852926,0.46730062781982123
1744662913393257500,24.679257568359375,0.2017962455421686,1.070944055148959,0.5144797276239842
1744662913413317400,24.6993173828125,0.5278127449929714,0.9880015680462121,0.24537246201615778
1744662913433378600,24.719378662109374,0.37040392270982264,0.7794862433820963,-0.2352012514126487
1744662913453438500,24.7394384765625,0.008473813834786414,0.7761626519173384,-0.3361834540043026
1744662913473499600,24.759499755859373,0.16598960362374782,0.8485095107257365,-0.4113249850325286
1744662913493559300,24.779559326171874,0.4406786514192819,0.5609317552626133,-0.41344654376376416
1744662913513620500,24.799620361328124,0.43109658408164975,0.4234180122777819,-0.7799635785702616
1744662913533680400,24.819680419921873,0.16389643073678015,0.27423545880913736,-0.7617479037262499
1744662913553741600,24.839741455078126,0.1655026968896389,0.16073738218396902,-0.6163868082419037
1744662913573801500,24.859801513671876,0.23396540774106978,0.14464578682184218,-0.812721281246841
1744662913593862700,24.879862548828125,0.06313479382693767,0.015316811597347258,-0.9431132095277309
1744662913613922300,24.89992236328125,-0.45514732175469397,-0.058500996546447276,-0.9546577360447496
