time,seconds_elapsed,z,y,x
1744664779882177000,0.044177001953125,0.05722410847842693,0.012193857271224259,0.0013518324507749639
1744664779902237200,0.0642373046875,0.1239712475836277,0.004223097587749362,-0.018075725233915728
1744664779922297300,0.08429736328125,0.08971768032610417,0.0069113137584179635,-0.007926920541748404
1744664779942357200,0.104357177734375,0.05140928471982479,0.006776398799754679,0.0018931179869337937
1744664779962417200,0.124417236328125,0.10453355666399002,0.003998568116873502,0.0006179035694804042
1744664779982477300,0.144477294921875,0.09451368243098258,-0.0022647300615906713,0.006891010755905881
1744664780002537200,0.164537109375,0.0942208369642496,0.024531141601130364,0.011712115335999987
1744664780022597400,0.184597412109375,0.07027882036268711,0.021395035532489417,0.02253569118430605
1744664780042657000,0.204656982421875,0.06548866347670555,0.013644604068808257,0.0024388742022332733
1744664780062717200,0.22471728515625,0.09196692055761814,0.008258527116291225,-0.009733748484717216
1744664780082777300,0.24477734375,0.0626414573520422,0.02029215232450515,-0.0031656381238019094
1744664780102837200,0.264837158203125,0.08256254787445068,0.005026194131560623,-0.005243414795526769
1744664780122897200,0.284897216796875,0.09095160603523254,-0.009087598351575434,-0.011412801312573719
1744664780142957300,0.304957275390625,0.0743488462805748,0.005282799241133034,-0.008736650039034429
1744664780163017200,0.325017333984375,0.07704933741092682,-0.0015934066712856292,-0.00242097093607299
1744664780183077400,0.345077392578125,0.07256079382002353,0.001975939715467393,0.012049071655806619
1744664780203137300,0.36513720703125,0.09753332251310348,0.021365699840150774,0.007741236660361755
1744664780223197200,0.385197265625,0.09214929138720035,0.030436675850488242,0.0027517304105334913
1744664780243257300,0.40525732421875,0.06311433556079864,0.010808905718848108,-0.012808746899710968
1744664780263317000,0.42531689453125,0.08510463357269764,0.012444397966191172,-0.012517572800256312
1744664780283376000,0.445376220703125,0.07149170328378678,0.015630626786872742,-0.010566335984494071
1744664780303436300,0.465436279296875,0.09095920481979847,0.0030393676958978175,-0.010083628218178637
1744664780323496400,0.485496337890625,0.07375497204065322,0.0017628449540585279,0.007204296222468837
1744664780343556000,0.50555615234375,0.07600771940350533,-0.0015334201123565435,-0.01021392636722885
1744664780363616300,0.5256162109375,0.08199673068523407,-0.00384301222898066,-0.0008632269499241374
1744664780383676400,0.545676513671875,0.08992869272828101,0.01364664989542216,-0.00552098277802579
1744664780403736000,0.565736083984375,0.07227613165974617,0.015210136352479456,0.002090549388329964
1744664780423796200,0.585796142578125,0.08215279802978039,0.0199866665719077,0.02307483271243982
1744664780443856100,0.605856201171875,0.07991057206094264,0.015284918621741235,0.015570137904444708
1744664780463916300,0.625916259765625,0.08978490034341811,0.01427738554701209,0.011096312392060645
1744664780483976200,0.64597607421875,0.08350479716062545,0.014300510694272815,0.003430264426337089
1744664780504036000,0.6660361328125,0.07109364387691021,-0.008065707957930863,-0.014871531498280818
1744664780524096300,0.68609619140625,0.09309446328282356,-0.014900851207599044,-0.007453608508151956
1744664780544156400,0.706156494140625,0.07589958285391331,-0.010138239915668965,-0.00032190944772446525
1744664780564216000,0.726216064453125,0.07276362291574477,-0.004602854152955115,-0.0028290151641354893
1744664780584276200,0.746276123046875,0.062437459212541575,0.006517893994040787,-0.011112923316855448
1744664780604336400,0.76633642578125,0.08697042744457721,0.006556910830177366,0.012551644033216871
1744664780624396300,0.786396240234375,0.07977379393875599,0.013009411437809466,0.008262054797227029
1744664780644456200,0.806456298828125,0.08186755134761332,0.023671602162346244,0.007825435211940202
1744664780664516000,0.82651611328125,0.07304360890090465,0.019380626970157026,0.016189829288923645
1744664780684575200,0.8465751953125,0.06855448078811169,0.02835804294552654,0.018549455109331755
1744664780704635100,0.86663525390625,0.08545826931595801,0.012904270562902092,-0.0019556115967803633
1744664780724695300,0.8866953125,0.08008417506217956,0.009165851219557226,-0.004357393775193486
1744664780744755200,0.906755126953125,0.08068681713044643,-0.016255626817420123,-0.017173371850000695
1744664780764815400,0.9268154296875,0.06977145536243916,-0.0023730127416551113,-0.01221214412987465
1744664780784875300,0.946875244140625,0.10000409654080868,-0.008633680571615695,0.001767064471449703
1744664780804935200,0.96693505859375,0.07337035663723945,-0.00312127382569015,0.007758132996235508
1744664780824996000,0.98699609375,0.08832651822865009,0.0024420959224924444,0.016091392149438614
1744664780845056000,1.007055908203125,0.05600070416331291,0.013774002602137625,-0.0064766646512201985
1744664780865116000,1.027115966796875,0.10088555555045604,0.013899528677947819,0.01124861002707621
1744664780885176000,1.047176025390625,0.07215747371613979,0.010558218893408775,0.005401952658372465
1744664780905236000,1.067236083984375,0.07305705290436744,0.027117395234666764,-0.005810302847111598
1744664780925296000,1.087296142578125,0.09086451227366923,-0.004777114741317928,-0.013154735909344161
1744664780945355800,1.107355712890625,0.08473813834786414,0.009672960491478443,-0.0023847511285101063
1744664780965416000,1.127416015625,0.0856418091893196,-0.012152173553965985,-0.020814185170922428
1744664780985476000,1.14747607421875,0.06275134746730328,0.007949826493300498,-0.0038826409864705052
1744664781005536000,1.167535888671875,0.09043079703152179,0.02029350403137505,-0.0016699173900415188
1744664781025596000,1.187595947265625,0.0760696787238121,0.015716697635129093,-0.006225710681010969
1744664781045656000,1.207656005859375,0.06873392900824546,0.025695545738004148,0.003143476524343714
1744664781065715200,1.227715087890625,0.06873334448635578,0.01688884668704122,0.0007043762765359134
1744664781085774800,1.24777490234375,0.09313537981510162,0.004374196496233344,-0.016346561070461757
1744664781105835000,1.2678349609375,0.07098959898054599,-0.0108999815357849,-0.00048595688603818413
1744664781125895000,1.28789501953125,0.10287351449728012,-0.0024538959581404925,0.0023616031483630648
1744664781145955000,1.307955078125,0.06951017407774925,0.015815993291139602,0.009269062715570908
1744664781166015000,1.328014892578125,0.08313187219500541,0.0022547201242297888,0.013731222906336188
1744664781186075000,1.348074951171875,0.06785831521749495,0.01056494089514017,0.013776062128483316
1744664781206135000,1.368135009765625,0.06994739645123481,0.009801043850556015,-0.0001302570498548448
1744664781226195000,1.38819482421875,0.09195055394470691,0.015336502678506076,0.000919793142483104
1744664781246254800,1.4082548828125,0.07519172684550285,0.01081391068752855,-0.005167682678194251
1744664781266315000,1.42831494140625,0.10228373191058635,-0.0038694983771070837,-0.008021090214780997
1744664781286375200,1.448375244140625,0.05814122332334518,0.014079086495935917,-0.007593717948452103
1744664781306434800,1.468434814453125,0.07534779419004917,0.0012386749494820832,-0.0042088978157495145
1744664781326495000,1.488494873046875,0.08209200775325298,-0.0025819062519818544,-0.002981422397005372
1744664781346555000,1.508554931640625,0.07849486004412173,0.01191726881954819,-0.002333379417588003
1744664781366615000,1.528614990234375,0.07340542795062065,0.007321940385922789,-0.000209304502280429
1744664781386675000,1.548675048828125,0.08611761000752449,0.01107720126621425,0.011397555794380605
1744664781406734800,1.56873486328125,0.07593991486430168,-0.0068261927582323545,-0.0005349425603402778
1744664781426795000,1.588794921875,0.05934007771909237,-0.0062985886875540015,0.00953354745421093
1744664781446855200,1.608855224609375,0.09345978946387767,0.003084850805439055,-0.007512868981296196
1744664781466914000,1.6289140625,0.07431026783585548,-0.010017938004247844,-0.0038410463174688627
1744664781486974000,1.648973876953125,0.09495908811092377,-0.009388334863819181,-0.007899518794880715
1744664781507034000,1.6690341796875,0.06487666905820369,0.011831855558417736,-0.009003025340661407
1744664781527093800,1.68909375,0.1016892731487751,0.022110088466666636,0.006162778679747134
1744664781547154000,1.70915380859375,0.07145838553607463,0.020115992040000856,0.003039828920201398
1744664781567214000,1.729214111328125,0.07519114232361317,-0.0014078209713101386,0.00693343425868079
1744664781587274000,1.74927392578125,0.08521393916606902,0.016617628530226646,-0.002467972432554234
1744664781607334000,1.769333984375,0.08447276540994644,0.011529182817414402,-0.0007572618078207597
1744664781627394000,1.78939404296875,0.08568214119970798,-0.011172770595178008,-0.010538304049964062
1744664781647454000,1.809453857421875,0.08119593569636345,0.004461290257796645,-0.010639097543316893
1744664781667514000,1.82951416015625,0.08269055816829204,0.003151011376827955,0.013941093664197251
1744664781687574000,1.849573974609375,0.08179156350195407,0.007062558797374367,0.013070749703608452
1744664781707634000,1.869634033203125,0.07565817531347274,0.00014624007027596233,0.009246095115225762
1744664781727694000,1.889694091796875,0.0831453161984682,0.014701127384416758,0.0013375093811890109
1744664781747754000,1.90975390625,0.07446750422418118,0.008835742482356726,-0.003039148500189185
1744664781767814000,1.92981396484375,0.0915238529652357,0.007830145636387169,-0.002962861543719191
1744664781787874000,1.9498740234375,0.08583703950047493,-0.0059255541240796445,0.010967829457472544
1744664781807934000,1.969933837890625,0.06923544878959656,0.011865319436602293,0.01006189587698318
1744664781827992800,1.989992919921875,0.07896598468720913,0.0011513254595920442,-0.014752124636003281
1744664781848053000,2.010052978515625,0.08360825753509998,0.006764964090287685,0.010257505214051343
1744664781868113200,2.030113037109375,0.07641863829195499,-0.0038638723539188504,-0.009864080883096904
1744664781888172800,2.0501728515625,0.07746960864961147,0.002341485092230141,0.004858945522585418
1744664781908233000,2.07023291015625,0.07447334944307804,0.010348010208830237,-0.009821915391937363
1744664781928292900,2.09029296875,0.0818032539397478,0.016538681542500853,-0.003029588370688725
1744664781948353000,2.11035302734375,0.0812070416122675,-0.002819879726320505,-0.0097956141901901
1744664781968413000,2.130412841796875,0.0919815336048603,0.01586951357666403,-0.004547164743230678
1744664781988472800,2.150472900390625,0.08659457986950873,0.015880400296859443,0.003294226089667063
1744664782008533000,2.170532958984375,0.06055822133719921,0.02408763561733067,-0.01551671808362007
1744664782028593200,2.19059326171875,0.08539630999565125,0.0006260229438543319,0.002604271064128261
1744664782048652800,2.21065283203125,0.07283376554250717,-0.0077516005074605345,0.0039312316518393346
1744664782068713000,2.230712890625,0.0879512551754713,-0.00799015850368887,-0.007717426526511553
1744664782088773000,2.250773193359375,0.0747889912635088,-0.009617869303375482,0.002035332619352266
1744664782108833000,2.2708330078125,0.06955050608813762,0.005982143149524927,0.010635983137623406
1744664782128893000,2.290892822265625,0.07866612495779991,-0.004981697402708232,0.00722508784874808
1744664782148953000,2.310953125,0.08329261571466923,-0.014285788049176334,-0.004563184296269901
1744664782169012000,2.331011962890625,0.0946568902939558,0.0062373965522274375,0.0019973569628316907
1744664782189072000,2.35107177734375,0.07670096236467361,0.014303433303721249,0.0057219601266668176
1744664782209132000,2.371132080078125,0.08537526720762252,0.021147198251262305,0.011144215787551365
1744664782229192000,2.39119189453125,0.08597089501321316,0.033333822064101695,0.001010569848609157
1744664782249252000,2.411252197265625,0.07625029598772526,0.039630730251222844,0.008218154006707482
1744664782269312000,2.43131201171875,0.06562719516456127,0.01610653720293194,-0.009822977121151051
1744664782289372000,2.451371826171875,0.09705576812922954,0.014204356843419372,-0.01423306463138433
1744664782309432000,2.47143212890625,0.07670622306168079,0.020921097877807913,0.006785415506560821
1744664782329492000,2.491491943359375,0.08839023111462592,0.014071999168023467,0.004908266840316355
1744664782349551900,2.5115517578125,0.06609481267631054,0.005085194309800863,0.0082767477595713
1744664782369612000,2.531612060546875,0.08554536307752132,-0.0014463263507932423,-0.009532446909090504
1744664782389672000,2.551671875,0.06459551402926444,-0.009221965320967137,-0.010695700268493964
1744664782409731800,2.57173193359375,0.08240297339856624,-0.016122976881079373,-0.01002729035448283
1744664782429792000,2.5917919921875,0.09871171864271164,-0.033452333877235646,-0.002968588031607214
1744664782449852000,2.611851806640625,0.06698503951430321,-0.027832667364552616,0.013791944684204645
1744664782469912000,2.631912109375,0.10499532895684241,0.0026321751344949005,0.008072649155370891
1744664782489972000,2.651971923828125,0.06967208664119243,0.006568674333207309,0.0021191932442132383
1744664782510032000,2.672031982421875,0.08087795578837394,0.016078370554372667,0.0014869962878990917
1744664782530091000,2.692091064453125,0.06934592342674732,0.030644144588708875,-0.002957377084426116
1744664782550151000,2.71215087890625,0.07772446019351482,0.0332299232982099,-0.009489363535901066
1744664782570210800,2.7322109375,0.09433598777651786,0.013874175040982662,-0.013633733331633265
1744664782590271000,2.75227099609375,0.09209609989523887,0.013310513276234268,-0.012520851602731272
1744664782610331100,2.7723310546875,0.07429390122294426,0.005425897506251931,-0.02813561638348037
1744664782630390800,2.792390869140625,0.07758768207132816,-0.021690474815107882,-0.021035479221807325
1744664782650451000,2.812450927734375,0.06800795282125473,-0.016679624383151532,-0.017766981228441
1744664782670511000,2.832510986328125,0.0736953508079052,-0.0074271543260663745,0.028316306712629736
1744664782690571000,2.852571044921875,0.08686521350443363,0.02321406765319407,0.027179005211812907
1744664782710631000,2.872630859375,0.07129764201641083,0.04235277562625706,0.04665878855737392
1744664782730691000,2.892691162109375,0.08805120841860771,0.03365688000600785,0.02820960863487562
1744664782750751000,2.9127509765625,0.06604454379379748,0.019362652922049164,0.006792263089166954
1744664782770811100,2.93281103515625,0.07891396223902702,0.008871763643808662,-0.011396322818519548
1744664782790870800,2.952870849609375,0.08131284007430076,-0.020881679182872176,-0.007429028906032908
1744664782810930700,2.9729306640625,0.08565759128034114,-0.01532221842482686,0.00011724458794342354
1744664782830990600,2.992990478515625,0.07533435018658638,-0.01595733799058944,-0.011060158799868077
1744664782851049700,3.0130498046875,0.08266133207380771,-0.010004384402930735,-0.010760598181269596
1744664782871109600,3.033109619140625,0.07712123360335826,0.014175788336060941,-0.020146270730544345
1744664782891169500,3.05316943359375,0.08474515261054039,0.019726262070052323,-0.0003740369271836243
1744664782911229700,3.073229736328125,0.0808534058690071,0.029638986134156584,0.00224599567836849
1744664782931289600,3.09328955078125,0.08219313004016876,0.04147504294365644,0.018924019476189276
1744664782951349800,3.113349853515625,0.08084171543121338,0.027044658792018887,0.008348634818848222
1744664782971409700,3.13340966796875,0.07306114455759524,-0.005280059294775128,0.005851557306107133
1744664782991469600,3.153469482421875,0.09685995329618453,-0.0127659215381369,0.0018750914231874048
1744664783011529700,3.17352978515625,0.06498655917346477,-0.014846855998039244,-0.020435768896143416
1744664783031589600,3.193589599609375,0.08758359090685844,-0.018786825795471668,0.00597978907894576
1744664783051649500,3.2136494140625,0.07950549839138984,0.006599727058596908,-0.008805358760536182
1744664783071709700,3.233709716796875,0.08787818993926048,0.02156644657664001,-0.00031811233873013406
1744664783091769600,3.25376953125,0.0833802939981222,0.01876782883405685,0.012426558632112573
1744664783111829800,3.273829833984375,0.06451601905226707,0.019272673083655534,0.0027842604236677287
1744664783131889700,3.2938896484375,0.08621639420688151,0.006351414853334426,0.0164478614538908
1744664783151949600,3.313949462890625,0.08307458904981613,0.010081797020696103,0.0009085159799316898
1744664783172009700,3.334009765625,0.08637129250764847,0.010407923702523112,0.0004589615645469166
1744664783192068600,3.354068603515625,0.08338321660757064,0.00610671937726438,-0.015213355789449996
1744664783212128500,3.37412841796875,0.08562368901073932,-0.0021858561391010878,-0.01730033868093742
1744664783232188700,3.394188720703125,0.09310673824250698,-0.013728373362123965,-0.007091841974074487
1744664783252248600,3.41424853515625,0.07799801643788815,-0.0035177988626062867,0.011814874740864616
1744664783272308500,3.43430859375,0.08712006504833698,0.016971520001813768,0.014456347426667343
1744664783292368600,3.45436865234375,0.07873334497511386,0.013706234595552086,0.017324858917552047
1744664783312428800,3.4744287109375,0.07857844667434692,0.02278849918488413,-0.008420834688667674
1744664783332488400,3.494488525390625,0.08082710238397121,0.006235642986558377,0.011167140005412511
1744664783352548600,3.514548583984375,0.06047288114130497,0.014978154227510095,-0.008796291821380146
1744664783372608800,3.53460888671875,0.07409224117100238,-0.00947838776744902,-0.0039028846234781664
1744664783392668700,3.554668701171875,0.07708382420241833,0.00746094699781388,-0.004030673438322264
1744664783412728600,3.574728515625,0.08950082270503043,0.002137925344146788,0.002627983016567305
1744664783432788700,3.594788818359375,0.06675473788976669,0.005167611896246671,0.0014105563510907813
1744664783452848600,3.6148486328125,0.07588029363155364,0.014053331000171601,-0.010430715489643626
1744664783472908800,3.63490869140625,0.06764964090287685,0.00928220760822296,-0.02388021711145993
1744664783492968400,3.654968505859375,0.08171031495928764,0.014331380756571888,0.009302631625032518
1744664783513027600,3.675027587890625,0.09487959313392638,-0.0009507979188114404,-0.0035156639877357517
1744664783533087700,3.695087646484375,0.06914601694047451,0.014967888561822473,-0.0012143396592466159
1744664783553147600,3.715147705078125,0.08770224885046482,0.007021605732478201,-0.005189931042620446
1744664783573207600,3.73520751953125,0.0706447310656309,-0.007220708501152694,0.017785752144281287
1744664783593267700,3.755267822265625,0.07259118895828723,0.021352438499778508,0.0015578398842713795
1744664783613327600,3.77532763671875,0.08425941492021083,0.015586714579910038,-0.00410651743679773
1744664783633387500,3.795387451171875,0.08351239594519137,0.011071648308262228,0.010772395933629013
1744664783653447700,3.81544775390625,0.06869418151974678,0.00860259131360799,0.004360193087055813
1744664783673507600,3.835507568359375,0.07453472424149513,0.0077492258872836825,-0.003294648498063907
1744664783693567700,3.855567626953125,0.07004851873815059,0.01069185521043837,0.00892260791505687
1744664783713627600,3.875627685546875,0.07318857032954693,0.001914309188723564,0.001374505506886635
1744664783733687600,3.8956875,0.05373509731888771,0.0017754852399230001,-0.0019172614809242075
1744664783755628500,3.917628662109375,0.07902034522294998,0.004994520351663231,-0.016610858579433986
1744664783775688700,3.937688720703125,0.05762333692908287,0.008552212833240628,-0.004748571350134443
1744664783795748600,3.95774853515625,0.07647358334958552,-0.0027289500398561357,-0.008764355463290121
1744664783815808500,3.97780859375,0.0739256524324417,0.0057470557520166035,-0.014724012786371168
1744664783835867600,3.99786767578125,0.09577157353758811,0.0147581182686612,0.0008781573742860927
1744664783855927800,4.017927734375,0.09338380161821842,0.013575009431317448,0.010528764470061286
1744664783875987500,4.037987548828125,0.07646949169635772,0.0075546531632542605,0.009543107583711389
1744664783896047600,4.058047607421875,0.08903729684650898,0.007440050340257584,-0.00260123657353688
1744664783916107800,4.078107666015625,0.0692898093253374,0.014968692279420793,0.006876189929398242
1744664783936167700,4.098167724609375,0.09008826720416545,0.008391250117868185,0.001982816980825737
1744664783956227600,4.1182275390625,0.06838847657144069,0.008442834174633025,0.0004879844463430345
1744664783976287500,4.13828759765625,0.07676701333820819,0.0072812430493533606,0.00256398700280115
1744664783996347600,4.15834765625,0.07466741071045398,0.014710224006325006,-0.009871876030485146
1744664784016407800,4.17840771484375,0.08813187243938446,0.007587349856458604,-0.00548666494989302
1744664784036467500,4.198467529296875,0.07106441778242588,0.023325382540561258,0.000980261475313455
1744664784056527600,4.218527587890625,0.0807926155924797,0.008778897728584706,-0.008061303494160529
1744664784076587800,4.238587890625,0.09036883771121501,0.02869154921621084,-0.013659178300143685
1744664784096647700,4.258647705078125,0.10053951859176158,0.019357246094569562,-0.009216745723155327
1744664784116079600,4.27807958984375,0.0813853207886219,0.010552556337602437,-0.008562599513225723
1744664784136139500,4.298139404296875,0.06791676740646362,0.0008473740769550204,0.007629314418218564
1744664784156199700,4.31819970703125,0.09305939196944236,0.008694690043851733,0.009585318740643561
1744664784176259800,4.338259765625,0.06627601446211338,-0.007348243870958685,0.006222820037603378
1744664784196319500,4.358319580078125,0.09097323334515094,0.012396978627890349,-0.002034766363771632
1744664784216378600,4.378378662109375,0.07540975351035595,0.018260354235954582,-0.002783395057276357
1744664784236438800,4.398438720703125,0.09261573985517024,0.014123364029079676,0.0032110755675705148
1744664784256498700,4.418498779296875,0.06552373479008675,0.019955686911754308,-0.009810526348243002
1744664784276558600,4.43855859375,0.08482640115320682,0.014433781685121357,0.008218343519663903
1744664784296618800,4.45861865234375,0.0754027392476797,0.027672764095105228,0.008480250425438861
1744664784316678400,4.478678466796875,0.09365618881881237,-0.004901983230002224,0.010532616377982775
1744664784336738600,4.498738525390625,0.07944470811486244,-0.0027430881630629298,-0.018158332333317956
1744664784356798700,4.518798828125,0.05940086799561977,-0.005445990446209907,-0.01260161380491918
1744664784376858600,4.538858642578125,0.0769102212011814,-0.008928352669253944,-0.015479475362750236
1744664784396918500,4.55891845703125,0.06912497415244578,0.005082162102498114,0.011552205216686706
1744664784416978700,4.578978759765625,0.07600304322838783,0.005031783622130751,0.011999184082495049
1744664784437038600,4.59903857421875,0.08363105388879775,0.012903138051740825,0.024430350391066166
1744664784457098800,4.6190986328125,0.08048983325362205,0.01170084958989173,0.01536478805807419
1744664784477158700,4.63915869140625,0.07674655507206916,-0.00009388882853090763,0.006417239781294483
1744664784497218600,4.659218505859375,0.0812327605754137,0.012226919290609657,0.0036516817748080935
1744664784517277700,4.679277587890625,0.08766250136196613,0.011864734914712608,-0.01285409301193431
1744664784537337600,4.699337646484375,0.08930851500332355,0.0031858269618824124,-0.010090258888364768
1744664784557397500,4.7193974609375,0.06431961969733238,0.002275799444876611,-0.019007948599709196
1744664784577457700,4.739457763671875,0.07644201916754245,0.016908647366054356,0.00013613423479255288
1744664784597517800,4.759517822265625,0.07913549603521823,0.0029966975979506968,0.0013941303726751357
1744664784617577500,4.779577392578125,0.08616670984625815,0.01693601029701531,0.0020577819131780413
1744664784637637600,4.7996376953125,0.07030863097906112,0.023462087597511706,-0.010553323522582649
1744664784657697800,4.81969775390625,0.06940963631272315,-0.001347578684054315,-0.0007079222237807698
1744664784677757700,4.8397578125,0.09589666122198104,0.011803213985823095,0.0059773071442032226
1744664784697817600,4.859817626953125,0.06177344234585762,0.005503273591399192,0.0044611646769219075
1744664784717877500,4.87987744140625,0.09918459685146808,-0.0005163520243018865,0.000040576322271954266
1744664784737937700,4.899937744140625,0.06072597911953926,-0.003312485548853874,0.006933957131777424
1744664784757997800,4.919997802734375,0.09334697673916816,0.007759747281298041,0.0035470226738019846
1744664784778057500,4.940057373046875,0.06851122616827487,0.0045278526879847045,-0.009943279032572172
1744664784798117600,4.96011767578125,0.08797054439783096,0.015307934171147643,0.013284355921670793
1744664784818176800,4.9801767578125,0.08496902449429035,0.007999510853923857,-0.007801328250567894
1744664784838237000,5.00023681640625,0.07479132935106754,0.01733370437771082,-0.011237227833247742
1744664784858296800,5.020296875,0.0749409669548273,0.0010326309833675622,-0.010867679851513821
1744664784878356700,5.040356689453125,0.0677566084086895,0.004512582053616643,-0.007545860218734014
1744664784898416600,5.060416748046875,0.08092939371466636,0.0002094780322164297,-0.007793023929814807
1744664784918476800,5.080476806640625,0.06686871965825557,0.004439626415260136,-0.0018492034966824575
1744664784938537000,5.100536865234375,0.08287351351976394,0.0036919498531147836,0.0065645438640727655
1744664784958596600,5.1205966796875,0.060279988917708395,0.010370222040638326,0.0028417536314111203
1744664784978656800,5.14065673828125,0.08960954377651215,0.014700141003727912,0.01106203109654598
1744664784998717000,5.160717041015625,0.0782353323251009,-0.0003723404437303543,-0.00567476683394052
1744664785018776600,5.180776611328125,0.05010346281826496,0.007850750032998621,0.006854674500622786
1744664785038836700,5.200836669921875,0.08451543550789356,0.01693184557855129,-0.015735703729698434
1744664785058897000,5.22089697265625,0.07448971605598927,-0.0037110198797658082,0.0018744338360615074
1744664785078956800,5.240956787109375,0.07956687318980693,0.017172412868775425,0.004305538007081486
1744664785099016700,5.2610166015625,0.08045885359346866,0.013253595457226037,0.0068901202733395615
1744664785119075800,5.281075927734375,0.07402268306612968,-0.00931103184390813,-0.0048157708178507164
1744664785139135700,5.3011357421875,0.0840472334742546,-0.014225253500975667,-0.012322015978826675
1744664785159195600,5.321195556640625,0.07985328891575336,0.007718319292366504,-0.0038268305624485945
1744664785179255800,5.341255859375,0.0761088416904211,0.003453976378776133,-0.0058511645804625
1744664785199315700,5.361315673828125,0.07281330727636813,0.0068273983346298335,-0.0037494019616628065
1744664785219375900,5.3813759765625,0.07790449293553829,0.0238042886313051,0.016090830460435246
1744664785239435800,5.401435791015625,0.09571487491428851,0.013404402104765177,0.001267759480071254
1744664785259495700,5.42149560546875,0.08075403714776039,0.016016447766683994,-0.009756574521167204
1744664785279555800,5.441555908203125,0.0648936201930046,0.01256327510550618,-0.009858132916211616
1744664785299615700,5.46161572265625,0.0809060128390789,0.0023552944218739867,-0.010683146747597492
1744664785319675600,5.481675537109375,0.07537175958752632,0.013816818830557166,0.001370224340702407
1744664785339735800,5.50173583984375,0.07985971865653992,0.015655067108385264,-0.008499660662095994
1744664785359795700,5.521795654296875,0.07208148587048054,0.014252104975283146,-0.0022190894051338545
1744664785379856000,5.54185595703125,0.08435761459767818,0.008749196710065008,0.010148608329345006
1744664785399914800,5.561914794921875,0.09303659561574458,0.012345723364688456,0.0003106163021526299
1744664785419975000,5.581974853515625,0.06341185720264911,0.004020999144390225,0.005614309917553328
1744664785440034800,5.602034912109375,0.08286474569141865,0.003579867780767381,0.006193612209428102
1744664785460094700,5.6220947265625,0.07613572969734668,0.012294212373159825,-0.010192947511281818
1744664785480155000,5.64215478515625,0.08750701853930949,0.0067798693984746925,-0.007893258017452899
1744664785500214800,5.66221484375,0.06895254019498824,0.0221814001372084,-0.02079135913447244
1744664785520275000,5.68227490234375,0.0890010564893484,0.0063923313856124875,-0.02258649892293615
1744664785540334600,5.70233447265625,0.08286883734464645,0.014541370245441793,-0.020808102490007876
1744664785560394800,5.722394775390625,0.08391863865852356,0.01763845947794616,-0.016888755355495957
1744664785580455000,5.742454833984375,0.07853519205451011,0.023548889098130164,-0.0009273736607399768
1744664785600514600,5.7625146484375,0.08047814281582832,0.018077873808518052,0.008438331529451533
1744664785620574700,5.78257470703125,0.08467559450566768,0.01970832455456257,-0.003886075052572414
1744664785640635000,5.802634765625,0.07421206815838813,0.004808021336235106,-0.005125238625821657
1744664785660693800,5.82269384765625,0.07436638193726539,-0.0047153380841016765,0.00010919142893981188
1744664785680753700,5.842753662109375,0.07930968355834483,-0.0005032368144020437,0.010469026789593045
1744664785700813800,5.862813720703125,0.09173428084552288,-0.0004643661087378859,0.012231109125248621
1744664785720873700,5.882873779296875,0.08170973043739795,0.0017426058836281298,0.015376398580765817
1744664785740933600,5.90293359375,0.08934183275103569,-0.005002594060264528,0.012957162944052834
1744664785760993800,5.922993896484375,0.06719897452592849,0.005981668225489557,0.012224690800905227
1744664785781053700,5.9430537109375,0.08545300861895083,0.00017312807720154522,-0.009323799993935972
1744664785801113900,5.96311376953125,0.08290858483314514,0.004065824666805565,-0.006838604715233668
1744664785821173000,5.983173095703125,0.08111351810991764,0.005389511018618941,-0.01567093139779754
1744664785841233000,6.00323291015625,0.06391045437455177,0.020973156858608125,-0.010226753882761112
1744664785861293000,6.02329296875,0.08935469223260879,0.011273965947329998,-0.002413280819961801
1744664785881353000,6.04335302734375,0.0827712221890688,0.0024276655383408067,-0.01325515266007278
1744664785901412900,6.063412841796875,0.06406944432854653,0.023454379215091466,-0.007848421078594401
1744664785921473000,6.08347314453125,0.08442366557121277,0.02038410492427647,0.0076868784079095346
1744664785941532000,6.103531982421875,0.08682195888459682,0.004890219726972281,-0.0052551349160727115
1744664785961592000,6.123592041015625,0.0905693287193775,0.000419540586322546,0.00895315831694752
1744664785981652000,6.14365185546875,0.06932020446360111,-0.0013474325535818934,0.005664213473885319
1744664786001712000,6.163712158203125,0.07710428246855736,0.005157967285066843,0.015566653605992905
1744664786021772000,6.18377197265625,0.07560673738718032,0.0026315540799871084,-0.0008637589561752974
1744664786041832000,6.20383203125,0.08892097699046135,0.0022551219830289483,0.004116289912140928
1744664786061892000,6.22389208984375,0.0862263310790062,0.006462656675465405,-0.00030182792420964686
1744664786081951700,6.24395166015625,0.08712766383290291,0.01820822218991816,0.002743243426689878
1744664786102012000,6.264011962890625,0.07980009742379188,0.005975494213029742,-0.0026346273864852263
1744664786122072000,6.284072021484375,0.07875029610991477,0.013518128144927323,0.012989551393291911
1744664786142132000,6.304132080078125,0.09416764547228812,0.030609182873181998,-0.0014145840722369029
1744664786162192000,6.32419189453125,0.06857903070747852,0.0185028212223202,-0.008735643108747899
1744664786182252000,6.344251953125,0.07292495095729827,0.012535108456946909,0.0019680258370703085
1744664786202311000,6.364310791015625,0.083707041734457,-0.0009498846033588051,-0.014269152008206583
1744664786222370800,6.384370849609375,0.0917903949469328,-0.0032696327878162265,0.002896853952668607
1744664786242431000,6.404430908203125,0.06396364586651325,0.0030433862838894128,0.004764090862963349
1744664786262491000,6.424490966796875,0.0874678555727005,0.005776975966244936,0.01191793097325135
1744664786282551000,6.444551025390625,0.056197688040137285,0.01062028781156987,-0.0021759649327490476
1744664786302611000,6.46461083984375,0.06936755073666573,0.008782624055631459,0.005714139863103628
1744664786322670800,6.4846708984375,0.08104162191748619,0.013081051901914179,0.010145528172980993
1744664786342731000,6.50473095703125,0.07505319515764713,-0.0030351664448156953,0.000707527214847505
1744664786362791200,6.524791259765625,0.08149170377254486,0.010787680267728864,-0.004259191814437509
1744664786382850800,6.544850830078125,0.0750584558546543,0.009111527216434477,-0.005947839021123945
1744664786402911000,6.564910888671875,0.09661036244928836,0.021880334831401706,-0.001878379358816892
1744664786422971100,6.58497119140625,0.07805705314874649,0.0034247137516736983,-0.01127477423150558
1744664786443031000,6.605031005859375,0.08524374978244305,0.008889664626680314,-0.008752160418708807
1744664786463090000,6.62508984375,0.07088321599662303,0.014605777251161634,0.002102516104048118
1744664786483150000,6.645150146484375,0.08181319081187248,-0.0070835285201668735,-0.012361802283232099
1744664786503210000,6.6652099609375,0.08959551525115966,0.0036522388972342014,0.0019455537103582172
1744664786523270000,6.685269775390625,0.0682008450448513,-0.01123692187257111,0.0022133149681845678
1744664786543330000,6.705330078125,0.0863040724903345,0.008118424525856972,-0.004408258596039377
1744664786563390000,6.725389892578125,0.07927519676685332,0.008628054548427463,0.00024359949752688405
1744664786583450000,6.7454501953125,0.07793254998624324,0.009730316701903939,-0.011490590672963298
1744664786603510000,6.765510009765625,0.06670563805103302,0.007116700137406587,0.003202202707948163
1744664786623570000,6.78556982421875,0.07658171989917754,0.012793942056223749,0.0045926021869992836
1744664786643630000,6.805630126953125,0.07852876231372356,-0.0054985974162817,0.003660595733625814
1744664786663690000,6.82568994140625,0.060875032201409336,-0.0066292819466441865,-0.01907343788424041
1744664786683750000,6.84575,0.07554127093553542,-0.0005425093788653612,-0.010031610336573795
1744664786703809000,6.86580908203125,0.06417407374680043,0.01117960219476372,-0.016578958753962068
1744664786723869200,6.885869140625,0.08197977955043316,0.0026702421225607395,-0.024415196204418316
1744664786743928800,6.9059287109375,0.07763911999762058,-0.005089285963028669,-0.0074632531193317845
1744664786763989000,6.925989013671875,0.08138006009161472,0.008077361863106489,0.0005665798076195642
1744664786784049200,6.946049072265625,0.08721768020391464,0.009388517526909708,-0.00925953455211129
1744664786804108800,6.96610888671875,0.0852712223112583,0.01106167490351945,0.004382882126187905
1744664786824169200,6.986169189453125,0.07973463097214699,0.012392302452772855,0.0029185543278232215
1744664786844229000,7.00622900390625,0.08273089017868042,0.0129050012152642,-0.005028628117241896
1744664786864289300,7.026289306640625,0.08138824339807033,0.0089145433396101,0.0040206338182091714
1744664786884349200,7.04634912109375,0.08677695069909096,0.0063244537811726325,-0.005143920493405312
1744664786904409000,7.0664091796875,0.08139291957318782,0.008957176904939114,-0.007394900590856559
1744664786924469200,7.08646923828125,0.07720657379925251,0.0028831907534971834,-0.011657435139850713
1744664786944529400,7.106529296875,0.0969528922766447,0.014690898251347242,0.002229526317468844
1744664786964588300,7.12658837890625,0.06703238578736782,0.01394132199306041,-0.011797784325457177
1744664786984648200,7.146648193359375,0.0755593911141157,0.006653466539829969,-0.002018422583746724
1744664787004708400,7.166708251953125,0.05520692343711853,0.012239413446001707,0.002458330104663037
1744664787024768000,7.18676806640625,0.08978197773396969,0.003086458240635693,-0.008847839345526881
1744664787044828200,7.206828125,0.0815507404834032,0.001020100295357406,0.0011218071041628717
1744664787064888300,7.226888427734375,0.07661386860311031,0.011009323661774397,-0.004507809980376623
1744664787084948200,7.2469482421875,0.07527063730061054,0.011100143750384449,0.0013322258512955159
1744664787105008000,7.267008056640625,0.0776683460921049,0.009517075810022651,0.0029290848549921064
1744664787125068300,7.287068359375,0.08410568566322327,-0.0035553178614005443,0.003481677236454561
1744664787145128200,7.307128173828125,0.07514204248487949,0.011548289376683533,-0.011397322898940182
1744664787165188400,7.327188232421875,0.08157996657788753,0.006675897567346691,-0.00783129641385749
1744664787185247200,7.347247314453125,0.07125146478712559,0.001228884207829833,-0.014784540484705939
1744664787205307100,7.36730712890625,0.08457330317497253,-0.00019778759442269802,-0.002859841843950562
1744664787225367300,7.3873671875,0.07379764213860035,-0.001958513656631112,0.0035826807923614976
1744664787245427200,7.40742724609375,0.07649053448438643,0.01749444789737463,0.004979870771802962
1744664787265487000,7.427487060546875,0.0826268452823162,0.010445113907754421,-0.011849519079271703
1744664787285547300,7.44754736328125,0.08486965577304363,0.013779811288416384,0.0054395196062279865
1744664787305607400,7.467607421875,0.0672118340075016,0.014543452604673802,-0.004130039876280352
1744664787325667000,7.4876669921875,0.08157938205599784,-0.0024032252168282864,0.007683124681399203
1744664787345727200,7.507727294921875,0.09086275870800017,-0.002086268222145736,-0.0023847625449532643
1744664787365787400,7.527787353515625,0.0893675517141819,0.0018017156597226857,-0.010382250405149535
1744664787385847300,7.547847412109375,0.07769348053336143,-0.006971592578291892,0.003414434386254288
1744664787405907200,7.5679072265625,0.06258651229441166,-0.011151216350495815,-0.0009060728610958904
1744664787425966300,7.58796630859375,0.09624854339957237,-0.002342617603391409,0.0015542619709856807
1744664787446026200,7.608026123046875,0.06841244196891784,0.007160100887715816,-0.002982522942125797
1744664787466086100,7.628086181640625,0.08726210386753082,0.005627922884374857,0.004429333350108936
1744664787486146300,7.648146240234375,0.0573211391121149,0.004125701627880334,-0.009587907989951782
1744664787506206200,7.668206298828125,0.09591770401000976,0.002246500285156071,-0.007946597923175432
1744664787526266400,7.688266357421875,0.06704115361571311,0.007117942246422171,-0.0028043122644303363
1744664787546326300,7.708326171875,0.080204586571455,0.006614632366783916,0.0013328697386896238
1744664787566386200,7.72838623046875,0.08693360256552696,0.004920943658798933,-0.01637939019440673
1744664787586446300,7.7484462890625,0.08513502871096133,0.005284004817530512,-0.008014639924396761
1744664787606506000,7.768506103515625,0.08333996198773383,0.018422376397252083,-0.004546963813831098
1744664787626566100,7.788566162109375,0.07181435936689376,0.005628507406264543,0.007499530009110458
1744664787646625300,7.808625244140625,0.09814882406294345,-0.004497311419248581,-0.006685071821068413
1744664787666685200,7.828685302734375,0.06926116775274277,-0.002233896531909704,0.004461395289073698
1744664787686745000,7.8487451171875,0.0801823747396469,0.006038768707588314,-0.005758449362288229
1744664787706805200,7.86880517578125,0.06611234833300113,0.0007541428355500101,-0.002878382147639058
1744664787726865400,7.888865478515625,0.08944938477873801,-0.004930369074270129,-0.012971038489066994
1744664787746299400,7.90829931640625,0.0780740042835474,0.01698226059153676,-0.01234258155953139
1744664787766359300,7.928359375,0.06939560778737068,0.008001995071955025,0.001520574330515228
1744664787786419200,7.948419189453125,0.0882470232516527,0.014356880524009465,-0.004355053404346108
1744664787806479000,7.96847900390625,0.08016367003917693,0.016664463346637785,-0.009457116650557144
1744664787826539300,7.988539306640625,0.08734802858531475,0.018565182401426135,-0.00335296368971467
1744664787846599400,8.008599365234375,0.0605628975123167,0.006158011173084378,-0.003843185758916661
1744664787866658300,8.028658203125,0.08765373353362083,0.010363098180107772,-0.004250693414150737
1744664787886718200,8.04871826171875,0.0707411771774292,0.009240925749763845,-0.008030316984141245
1744664787906778400,8.0687783203125,0.08944529312551021,0.005955620468780398,0.007719470069836825
1744664787926838300,8.08883837890625,0.08241232574880122,0.006113258715905249,-0.018898702371842227
1744664787946898200,8.108898193359375,0.0701443803280592,0.0006770590113475918,-0.005638330113957635
1744664787966958300,8.128958251953126,0.08361118014454841,-0.0008026581523939967,-0.007524664450366981
1744664787987018000,8.14901806640625,0.08451426646411418,0.008207564114034175,-0.0008138827993068844
1744664788007078100,8.169078125,0.08465981241464614,0.010545724738016723,-0.002858188742981292
1744664788027138300,8.18913818359375,0.0804699595093727,0.00023242051638662815,-0.0014590579682029782
1744664788047198200,8.2091982421875,0.07014087319672108,0.007065773667767643,-0.002119028847431764
1744664788067258000,8.229258056640624,0.07687924154102801,0.006366466291993856,-0.0007314058473566546
1744664788087317200,8.249317138671875,0.0687976418942213,0.0023474764415994287,0.006651041687303222
1744664788107377400,8.26937744140625,0.07523498146533966,0.013510054436326026,0.009083205304248257
1744664788126810400,8.288810302734374,0.08481646428108215,-0.008145970119908452,-0.0002796434918651357
1744664788146869200,8.308869140625,0.0815203453451395,-0.0016205138739198446,-0.015370770274288952
1744664788166929200,8.32892919921875,0.07792085954844952,0.003809183024615049,0.0026430892541538923
1744664788186989300,8.3489892578125,0.07792085954844952,0.007996770907565951,0.002462869282462634
1744664788207049200,8.36904931640625,0.08001929313242435,0.005084682853147387,-0.006731897504325024
1744664788227109000,8.389109130859374,0.08421616030037403,0.00044076603744179005,-0.0011702995881205424
1744664788247169300,8.409169189453126,0.07178747135996819,0.018728154410794375,0.012245811220747417
1744664788267229400,8.4292294921875,0.08645312557220458,0.007927468531019985,-0.0014062409355770796
1744664788287289000,8.4492890625,0.06775017866790295,0.009841558524034916,0.0031245206621242686
1744664788307349200,8.469349365234375,0.08644961844086646,0.007714446834847331,-0.004411793126841076
1744664788327409200,8.4894091796875,0.09886895503103732,0.0011435440119355916,-0.001528908334020525
1744664788347468000,8.509468017578126,0.062358548757433886,0.0003737286832183599,-0.00795400034491904
1744664788367528200,8.529528076171875,0.08825111490488052,-0.006039755088277161,0.0012528359055751935
1744664788387588400,8.54958837890625,0.05862696101367473,0.010925335172750055,-0.006975912560382857
1744664788407648300,8.569648193359376,0.08271218547821045,0.0006019114159047603,0.009675823735422454
1744664788427708200,8.589708251953125,0.09303250396251678,0.007278612700849771,-0.011756548132770694
1744664788447768300,8.609768310546874,0.07477671630382537,0.006243095640651881,0.006125853335997089
1744664788467828200,8.629828125,0.07672901941537856,-0.004839987377077341,-0.0070737240787828335
1744664788487888400,8.649888427734375,0.07837620210051537,0.010837364628352225,-0.0013268144572386518
1744664788507948300,8.6699482421875,0.0774772074341774,0.014765169063955544,-0.0030166763734770937
1744664788528008200,8.69000830078125,0.07942834150195122,-0.0033213995076715945,0.005430843109427951
1744664788548067300,8.7100673828125,0.0747843150883913,0.0036689343037083744,0.00362966630582232
1744664788568127200,8.730127197265626,0.07732698530852794,0.005041866624727845,0.0032427493474679065
1744664788588187100,8.750187255859375,0.08136661608815193,0.010135317306220531,0.010258971085352822
1744664788608247300,8.770247314453124,0.06999474272429942,-0.013674926141835748,0.01103338039079681
1744664788628307200,8.79030712890625,0.08331658111214638,0.008371157177910208,-0.0024053212757920847
1744664788648367000,8.8103671875,0.08062427328824996,0.006989639691635966,0.00953876705202274
1744664788668427300,8.83042724609375,0.07718436196744441,-0.005620141436718404,-0.014076780374418013
1744664788688487200,8.850487060546875,0.0735907213896513,0.0034181744130328297,-0.005991600531036965
1744664788708547000,8.870547119140625,0.08885258792936801,-0.005549487353302538,-0.009539694067207165
1744664788728606200,8.890606201171876,0.07687807249724865,0.011582593505084515,-0.01003752862070687
1744664788748666400,8.910666259765625,0.088548636546731,-0.0012705313924700021,-0.013265906949527562
1744664788768726000,8.93072607421875,0.07762216886281967,0.016302169372886418,-0.00006427457497920841
1744664788788786200,8.9507861328125,0.08674655556082725,0.011278934383392333,-0.0046776957877213135
1744664788808846300,8.970846435546875,0.0663970104932785,0.009459975327923894,-0.007629252769425511
1744664788828906200,8.99090625,0.0744791946619749,0.000009644611179828643,-0.003291703055729158
1744664788848966400,9.01096630859375,0.08809797016978263,-0.003777838038280606,0.0017923861423740162
1744664788869026300,9.0310263671875,0.06490589515268802,0.004407952635362744,-0.0014160134109202772
1744664788889086200,9.051086181640626,0.10470657514333724,-0.0018035788232460617,-0.005356435299501754
1744664788909146400,9.071146484375,0.06490180349946022,0.0036122356804087754,-0.0008890714939450844
1744664788929205500,9.09120556640625,0.08959493072926998,0.0021871713133528826,-0.000640932818618603
1744664788949265200,9.11126513671875,0.07343582308888436,0.010214994946308434,-0.005890702006407082
1744664788969325300,9.1313251953125,0.07926993606984614,0.005609218183904886,-0.005679292312008329
1744664788989385500,9.151385498046874,0.07313187170624733,0.015096812171116471,-0.012160146797867491
1744664789009445400,9.1714453125,0.08360767301321029,0.0007150164015591144,-0.002803682076768018
1744664789029505300,9.19150537109375,0.08211188149750233,0.01581475118212402,-0.016637484008166937
1744664789049565400,9.2115654296875,0.0707405926555395,0.013394392167404293,-0.014207754376903175
1744664789069625300,9.231625244140625,0.09633680620491504,0.004684796815365553,-0.007841543813236058
1744664789089685500,9.251685546875,0.08376607844531536,0.003387961937859654,0.010269076920836232
1744664789109745200,9.2717451171875,0.07897825964689255,-0.0015627558046951888,0.007447690224018879
1744664789129804300,9.29180419921875,0.07912848177254199,0.0003748977269977331,-0.0033901584615232423
1744664789149864400,9.311864501953124,0.0942342809677124,0.01819642215427011,-0.003269418158684857
1744664789169924400,9.33192431640625,0.06700140612721443,0.003504245261289179,-0.0000636352541623637
1744664789189984300,9.351984375,0.07613339160978794,-0.007378712074458599,0.004715657744510099
1744664789210044400,9.37204443359375,0.06655541592538357,0.0032532296422868967,-0.005325451072771102
1744664789230104300,9.392104248046875,0.08570844468474388,-0.012003230069950223,-0.003030243674525991
1744664789250164200,9.412164306640625,0.08257306926846504,-0.006174268188141286,-0.01428309376859106
1744664789270224400,9.432224365234376,0.08137889104783534,0.006338299643434584,-0.00016738788958173243
1744664789290283500,9.452283447265625,0.08766834658086299,0.005465243135951459,-0.002832556544803083
1744664789310343200,9.47234326171875,0.08198036407232284,0.00923427681326866,-0.005534198452625423
1744664789330403300,9.4924033203125,0.10009060578048229,0.0021070552818477153,0.0016133808802347629
1744664789350463500,9.51246337890625,0.0736035808712244,0.004223134120367467,0.0026339560996275395
1744664789370523400,9.5325234375,0.08318214107751846,-0.002712108502909541,0.0004919939011801034
1744664789390583300,9.552583251953125,0.07674655507206916,0.004644793598540127,-0.0022799276307225226
1744664789410643500,9.5726435546875,0.08347966271936894,0.007496639365702867,-0.012648724899254738
1744664789430703400,9.592703369140626,0.08677110548019408,0.008244900449737906,-0.001596690040337853
1744664789450763500,9.612763427734375,0.08227963927984237,-0.0024797610517591235,-0.002134441045694984
1744664789470823200,9.6328232421875,0.0893108530908823,0.011183913043700158,-0.012741083924402482
1744664789490882300,9.65288232421875,0.058635144320130346,0.00624072102047503,0.015999624496046454
1744664789510942500,9.6729423828125,0.081681673386693,0.011581789787486195,-0.0057348447244148695
1744664789531002400,9.69300244140625,0.08303484156131744,0.020865422167815267,0.00458795341134537
1744664789551062300,9.713062255859375,0.0685229166060686,0.00810099846702069,-0.0018586974108126013
1744664789571122400,9.733122314453125,0.0703185678511858,0.004201397212594747,-0.0007175280190538615
1744664789591182300,9.753182373046876,0.08318272559940815,0.008195727545768023,-0.004633121427055448
1744664789611242200,9.7732421875,0.06972235552370548,0.016277254127338527,-0.00037260073863435534
1744664789631302400,9.793302490234375,0.09022329176068306,-0.010827245093137025,-0.00037134036330971863
1744664789651362300,9.8133623046875,0.07212006431519985,0.005571114663220942,-0.005964470495516434
1744664789671421200,9.833421142578125,0.08842939408123493,0.010383483381010592,0.011073890497698448
1744664789691481300,9.8534814453125,0.06598433803915978,0.003782989137433469,-0.005362024790071882
1744664789711541500,9.87354150390625,0.08348726150393486,0.002538834295235574,0.0011485124479979276
1744664789731601200,9.89360107421875,0.07016893024742603,0.009443462584540247,-0.014473035983275621
1744664789751661300,9.913661376953126,0.07031915237307548,0.014227189729735254,-0.0036273967169225215
1744664789771721500,9.933721435546875,0.10174421820640564,0.004317351742461324,-0.004692372767045162
1744664789791781400,9.953781494140625,0.06763152072429657,0.010806640696525573,-0.012451266098394989
1744664789811841300,9.97384130859375,0.08244330540895461,0.0021780746914446354,-0.007120645660161971
1744664789831901400,9.9939013671875,0.07182137362957,-0.0036954204518347975,-0.009859496039524674
1744664789851961600,10.013961669921875,0.08140110287964343,0.003569309854134917,0.0031900738787371662
1744664789872021800,10.034021728515626,0.07796879034340382,0.00696468791346997,-0.010834747979580424
1744664789892081400,10.054081298828125,0.07153788051307201,0.016774974516406655,0.010884404940740205
1744664789912141600,10.0741416015625,0.08545768479406833,0.00022924217861145733,-0.006637931043980643
1744664789932201700,10.09420166015625,0.08097206381261349,0.014656995981745422,-0.0038282713175751266
1744664789952261600,10.11426171875,0.08082710238397121,0.0016814137483015656,-0.0061232321206480264
1744664789972321500,10.134321533203124,0.0769412008613348,-0.007552022814750671,-0.006278491181018762
1744664789992381700,10.154381591796875,0.08786474593579768,0.011005524269491434,-0.004640469049871899
1744664790012440600,10.174440673828125,0.07858604545891285,-0.0019828809129074213,-0.0031001899384660646
1744664790032500500,10.19450048828125,0.07634791114330292,0.017023432852141557,0.00027544680736027655
1744664790052560600,10.214560546875,0.07664777087271213,-0.000059548167511820787,-0.0022267407053383065
1744664790072620500,10.23462060546875,0.07156301495432853,0.0030178134512156246,-0.004685271739400923
1744664790092680700,10.2546806640625,0.08982347878813743,-0.0020314692949876187,-0.006268873969302513
1744664790112740600,10.27474072265625,0.07949556151926516,0.002681749897263944,-0.0010742051027715206
1744664790132800500,10.294800537109374,0.09490823470652103,-0.0003197700062766671,-0.000913982172915712
1744664790152860700,10.314860595703125,0.0649766223013401,-0.0018660861328244208,-0.00013178228666074573
1744664790172920600,10.334920654296875,0.0835375303864479,-0.0001993219643831253,-0.011882539999461731
1744664790192979500,10.3549794921875,0.08353694586455822,0.003861205472797155,0.01857536586872302
1744664790213039600,10.37503955078125,0.06962474036812782,0.014096439489535987,0.0009177769986214116
1744664790233099800,10.395099853515624,0.08548632636666298,0.0072161419238895175,-0.013379107833304442
1744664790253159400,10.415159423828126,0.07590718163847923,-0.0066532108115032315,0.003975187241286039
1744664790273219600,10.435219482421875,0.08713117096424103,0.011125680050440132,0.00018078166069462895
1744664790293279700,10.45527978515625,0.0775549488455057,-0.001312324707582593,-0.018164940170617774
1744664790313339600,10.475339599609375,0.08024842571318148,0.0028827158294618127,-0.009329320985847152
1744664790333399600,10.495399658203125,0.08203998530507087,-0.013029540910385549,-0.016437403991958126
1744664790353458700,10.515458740234376,0.0847311240851879,0.0010963073367252945,-0.010868134225951507
1744664790373518600,10.5355185546875,0.06377776790559292,-0.007955196788161992,-0.005909032247541472
1744664790393578500,10.55557861328125,0.08098316972851753,0.0003234963333234191,-0.012889013628265819
1744664790413638700,10.575638671875,0.07814239334464072,0.0026876681813970205,-0.00573300439377781
1744664790433698600,10.595698486328125,0.08607727799713612,0.012336261416599154,0.0008889253634726628
1744664790453758700,10.6157587890625,0.07994388980865479,0.0202371342016384,-0.010829185888473876
1744664790473818600,10.635818603515625,0.0881739580154419,0.0031852059073746203,-0.003607586904754862
1744664790493878500,10.65587841796875,0.07186755085885524,0.0035487785227596757,-0.007008476822846569
1744664790513937700,10.675937744140626,0.07605915732979775,-0.006217120949178934,0.008213888823543675
1744664790533997600,10.69599755859375,0.07995148859322071,0.006617408845759928,-0.006885083338618278
1744664790554057500,10.716057373046874,0.07022913600206375,0.0005376505406573415,-0.00765984427051153
1744664790574117600,10.73611767578125,0.08354279108345508,0.0010794292671605945,-0.019203407239727674
1744664790594177500,10.756177490234375,0.06005085633695125,-0.0013435966286808251,-0.014065925620263441
1744664790614237400,10.776237548828124,0.0874368759125471,-0.0033347339132800695,-0.011244292328273876
1744664790634297600,10.796297607421875,0.07472703194320202,0.004833557636290789,0.01581626728577539
1744664790654357800,10.816357666015625,0.08325053013861179,-0.00041720249876379966,0.0475681858867174
1744664790674416600,10.836416748046876,0.08698971666693688,0.0008095993498340249,0.03237106427943799
1744664790694476500,10.8564765625,0.07172726560533046,0.017408157853409646,0.004023282433021813
1744664790714536700,10.87653662109375,0.07232873862981797,0.01539952144473791,-0.022012235849071294
1744664790734596600,10.8965966796875,0.09207681067287922,0.022671960133127868,-0.012178175644902511
1744664790754656500,10.916656494140625,0.09192775759100913,0.0159300846574828,-0.019771133258240297
1744664790774716700,10.936716552734374,0.0697825612783432,-0.005648929139785468,0.00695371899488382
1744664790794776600,10.956776611328126,0.0783136582583189,-0.0035986455464735623,0.001107632448337972
1744664790814836500,10.97683642578125,0.08609832078516483,-0.025063421846926212,-0.007788498451747
1744664790834894800,10.996894775390626,0.07323182494938373,-0.004604644251242279,-0.013982886979309841
1744664790854955000,11.016955078125,0.06904080300033093,-0.013551080566458403,-0.025858892206707968
1744664790875014700,11.0370146484375,0.06140694712102413,0.0017648907806724309,-0.007154712326545268
1744664790895074800,11.05707470703125,0.07367723062932491,0.013437939048185944,0.0021283720645122227
1744664790915135000,11.077135009765625,0.1071919622182846,0.01457490718886256,0.028793484353879465
1744664790935194600,11.097194580078124,0.046285950356721874,0.009870894216373563,0.02274843203597702
1744664790955254800,11.1172548828125,0.09222761732041836,-0.017568536046892402,-0.011876032626861705
1744664790975314000,11.13731396484375,0.07143617370426654,-0.0014449381113052367,-0.0315651821234962
1744664790995374000,11.1573740234375,0.08549743228256702,-0.006284487096965313,-0.024129853624128735
1744664791015433700,11.177433837890625,0.09627250879704952,0.010600158338993786,-0.03546151827517897
1744664791035494000,11.197493896484374,0.06335223596990108,0.011040705180726945,-0.0018898962666746228
1744664791055553800,11.2175537109375,0.09267945274114608,0.004503704627417028,-0.012147789639793335
1744664791075613700,11.23761376953125,0.06948328607082367,0.021631036245450375,-0.010960666781035251
1744664791095673900,11.257673828125,0.09102408674955367,0.012803184808604418,-0.00013576890861149876
1744664791115733800,11.277733642578125,0.07441080560088158,0.011402487697824835,0.005386318981111981
1744664791135792600,11.297792724609375,0.07800386165678501,0.0028396438727155324,-0.013837843352276832
1744664791155852800,11.317852783203126,0.0736684628009796,0.010226466188393533,0.004702743464009836
1744664791175913000,11.337912841796875,0.08669219502508639,0.005929755375161766,0.017604406511294655
1744664791195972900,11.357972900390624,0.08833703962266444,-0.003781089441291988,-0.0018575831659603864
1744664791216032800,11.37803271484375,0.08728606926500797,-0.003232917506620288,0.02817943497560918
1744664791236093000,11.398093017578125,0.0667892246812582,-0.00452343224119395,0.021982192337256855
1744664791256152800,11.41815283203125,0.08729308352768421,-0.007443520938977598,0.02608896093580406
1744664791276213000,11.438212890625,0.08310673775374888,-0.0030254122357815504,0.015997026113583706
1744664791296272000,11.45827197265625,0.07816518969833851,-0.009540858544409274,-0.00919568923539482
1744664791316331800,11.478331787109376,0.08549626323878765,-0.004882182550989091,-0.01249258448947221
1744664791336392000,11.498391845703125,0.07621288658678531,-0.0059487158039584756,-0.01160839466662146
1744664791356451800,11.518451904296874,0.06588964549303054,0.0022533318847417832,0.0004242487274808809
1744664791376511700,11.53851171875,0.07127133853137493,0.008060447260923684,0.009401363308751024
1744664791396572000,11.558572021484375,0.07605681924223899,0.014394837914220988,0.004236482225707732
1744664791416632000,11.578632080078124,0.08234159860014915,0.02592347274236381,-0.010742959776590578
1744664791436690700,11.598690673828125,0.07605448115468025,0.022826821901276707,-0.017280490052863022
1744664791456750800,11.618750732421875,0.07471124985218047,0.02275689847022295,-0.02133677057318855
1744664791476811000,11.63881103515625,0.070666942897439,0.007874496234767138,-0.04611471284250729
1744664791496870700,11.65887060546875,0.08682663505971432,-0.0251632654922083,-0.019590936119435354
1744664791516930800,11.678930908203125,0.07784545622467995,-0.02165861837211996,0.008490285478974692
1744664791536991000,11.698990966796876,0.07934650843739509,-0.016219715253822504,0.035782740453025326
1744664791557051000,11.71905078125,0.07290916886627674,-0.002967763764411211,0.03992440226844046
1744664791577109800,11.73910986328125,0.08218436221182346,0.018335538364015518,0.04940683145676739
1744664791597170000,11.759169921875,0.06991349418163299,0.02702679434176534,-0.002401978541235439
1744664791617229800,11.779229736328125,0.0865180075019598,0.018020188804529606,0.0007777840060414746
1744664791637289700,11.799289794921876,0.08995733430087566,0.004429616477899253,0.003162911877175793
1744664791657350000,11.819349853515625,0.07169628594517707,-0.005183357454650104,0.01198003642403055
1744664791677409800,11.839409912109375,0.07454933728873729,-0.003918050226569175,-0.018044880287791602
1744664791697470000,11.859469970703126,0.07335632811188697,-0.004453983734175562,-0.01770392592959106
1744664791717529900,11.87952978515625,0.07919687083363533,-0.0036650253135710954,-0.04599957572997082
1744664791737589000,11.899589111328124,0.07500760245025158,0.015763970842957494,-0.030537186216050758
1744664791757023000,11.91902294921875,0.0892190831542015,0.013465301979146896,-0.03773945031163748
1744664791777083000,11.939082763671875,0.05600070416331291,0.024675664638355372,-0.022590085969376377
1744664791797142800,11.959142822265624,0.10403262140452861,0.014535707689635455,-0.018233735657087528
1744664791817202700,11.97920263671875,0.08487257838249206,0.006463277729973196,-0.0021264267025981097
1744664791837262600,11.9992626953125,0.09160451698601245,0.0114420890558511,0.034753717065695675
1744664791857322800,12.01932275390625,0.07364332835972309,-0.00025477847866714,0.025304126134468242
1744664791877382000,12.0393818359375,0.09205226075351237,-0.013642887035757303,0.04256348663433455
1744664791897441500,12.059441650390625,0.0809802471190691,-0.012936127005890011,0.007572339516994543
1744664791917501700,12.079501708984376,0.09759294374585151,-0.0034248233495280146,-0.002388000248232856
1744664791937561900,12.099561767578125,0.08248305289745331,0.011624715613760054,0.0008731524056056514
1744664791957621800,12.119621826171874,0.08127952232658862,0.004730170327052473,-0.004277001465763896
1744664791977681700,12.139681640625,0.07917875065505504,0.006340272404812276,-0.012364724892680532
1744664791997741800,12.159741943359375,0.07155015547275542,0.01090889549460262,0.0025533605775097386
1744664792017800700,12.17980078125,0.0919032076716423,0.017295783520117403,-0.01748163864815142
1744664792037860600,12.199860595703125,0.07709025394320487,0.009337992916069925,-0.02538626059312373
1744664792057920800,12.219920654296875,0.08293781092762946,0.012967435459606349,-0.022213996365712953
1744664792077980700,12.239980712890626,0.08129588893949985,0.013042729185521603,-0.015223078032443299
1744664792098040800,12.260040771484375,0.08130524128973483,0.01567260276507586,0.0009698268462670967
1744664792118100700,12.280100830078124,0.08714461496770382,-0.0014477876555174587,0.0016537950890138744
1744664792138785800,12.300785888671875,0.08789689463973045,-0.005433752019144594,0.026026202464476227
1744664792158845700,12.320845703125,0.08340893557071685,-0.00202270146664232,0.030252642786782233
1744664792178905600,12.340905517578125,0.06978782197535037,-0.015244038622081279,-0.0013966967890970408
1744664792198965800,12.3609658203125,0.0834025058299303,-0.005904438270814717,-0.017848010575398802
1744664792219025700,12.381025634765624,0.08355623508691787,-0.007204232290387153,-0.01639152359019499
1744664792239085600,12.40108544921875,0.07906769149601459,0.007747180060669779,-0.017153315442660824
1744664792259145700,12.421145751953125,0.07846855655908584,0.0014792057070881128,-0.012142857736349105
1744664792279204600,12.44120458984375,0.08490238899886608,0.004052636391669511,-0.005335301179927774
1744664792299264800,12.4612646484375,0.08146306219995021,0.010729155013523995,0.00927895620521158
1744664792319324700,12.48132470703125,0.0669505527228117,-0.005337561635673046,0.00036346073424210767
1744664792339384800,12.501384765625,0.0726408733189106,0.018822262435033918,-0.004124395586783066
1744664792359444700,12.52144482421875,0.08116963221132754,0.011938786531612277,-0.026913901701953725
1744664792379504600,12.541504638671874,0.06606032588481903,0.0022663374967873094,-0.009628281099535525
1744664792399564800,12.561564697265625,0.08071955035626888,-0.0037482466176152226,0.011619514282257295
1744664792419623700,12.581623779296875,0.09074351624250411,-0.010753887595981358,0.017934807509439998
1744664792439683600,12.60168359375,0.08565233058333396,-0.002419153438322246,0.030883063344541006
1744664792459743700,12.62174365234375,0.07457739433944224,-0.006417137033306062,0.013582656164944636
1744664792479804000,12.641803955078124,0.07397533679306506,-0.00888929930049926,0.005336415424779989
1744664792499863600,12.661863525390626,0.08579553844630718,0.0113381172247231,-0.003866036911541596
1744664792519923700,12.681923828125,0.08429273266792296,-0.008863543804734945,-0.004204712547687814
1744664792539982800,12.70198291015625,0.07904723322987556,0.001941379858739674,0.0032894494498497805
1744664792560042500,12.72204248046875,0.07755027267038822,0.012579714783653616,-0.017692781197780276
1744664792580102700,12.7421025390625,0.07784954787790775,0.007041735205054283,-0.0018156619866844265
1744664792600162800,12.762162841796876,0.08697335005402565,0.007583988855592906,-0.015667650312033946
1744664792620222700,12.78222265625,0.07844108403027057,0.008702581089362501,0.004373929351463448
1744664792640282600,12.80228271484375,0.07979425220489501,0.020682466816343364,-0.0105563123474014
1744664792660342800,12.8223427734375,0.06976853275299072,0.021426088257879016,-0.009538732802693265
1744664792680402000,12.84240185546875,0.07695639843046664,0.013238617083802818,-0.0025279178922879507
1744664792700461600,12.862461669921874,0.08010521785020827,0.0036764965556561947,-0.004090171373484191
1744664792720521700,12.882521728515625,0.0825011730760336,-0.003842281576618552,0.0029298840060131624
1744664792740581600,12.90258154296875,0.08564765440821648,0.004595474564097822,0.022283221110445447
1744664792760641800,12.922641845703126,0.07682137387394905,-0.0011205649951472878,0.033396311107371
1744664792780701700,12.94270166015625,0.0804050775796175,0.004124057660065591,0.018979135780467185
1744664792800760800,12.9627607421875,0.06693360158801079,-0.005658135359548032,0.006723328322090674
1744664792820820500,12.982820556640625,0.08338847730457782,-0.003899272460862994,-0.011149401136033701
1744664792840880600,13.002880615234375,0.07126900044381618,0.006535612313821912,-0.005268053763150237
1744664792860940800,13.02294091796875,0.1031359648257494,-0.0009712196523323655,-0.001090642497630324
1744664792881000400,13.04300048828125,0.08817921871244906,0.012045607906952499,0.0005227246828726493
1744664792901060600,13.063060546875,0.07875204967558383,0.0024664266461506485,0.014781172633974346
1744664792921119700,13.08311962890625,0.08847557131052017,0.009571801671944559,-0.005526385038928128
1744664792941179400,13.103179443359375,0.07261106270253657,0.018774258574843404,-0.026750224156398324
1744664792961239600,13.123239501953124,0.07305588386058808,0.013926087891310453,-0.010360961021948605
1744664792981299700,13.1432998046875,0.07634908018708228,0.015403759228438138,-0.021303637771855573
1744664793001359600,13.163359619140625,0.07680792987048625,0.012787220054492354,-0.005870013128116261
1744664793021419500,13.18341943359375,0.07381693136096,-0.002955963728763163,0.01514909948077984
1744664793041479700,13.203479736328125,0.08773381303250789,0.0006157207455486059,0.014908977431838865
1744664793061538800,13.223538818359375,0.09596271219551562,-0.004595036172680557,0.01195598654487403
1744664793081598500,13.243598388671876,0.08862754700183868,-0.012455540414713322,-0.0013327418745262547
1744664793101658600,13.26365869140625,0.0512128853648901,0.0033589550390839573,-0.006912640349112916
1744664793121718500,13.283718505859374,0.08833177892565727,-0.001921140788309276,0.006278698960284237
1744664793141778700,13.30377880859375,0.07500877149403094,-0.011528379099816083,-0.000028956666425801813
1744664793161838600,13.323838623046875,0.08682605053782462,0.0048734877878800036,-0.0007468591448152438
1744664793181897700,13.343897705078126,0.05434767625927925,0.006373736282996833,-0.004174851698963903
1744664793201957600,13.36395751953125,0.07738777558505534,0.003930252121016383,0.000036423020251095295
1744664793222017500,13.384017578125,0.0779863260000944,0.010809271045029163,-0.014622824284085071
1744664793242077700,13.40407763671875,0.07694178538322448,-0.000022284897044301032,-0.016857462884800042
1744664793262137600,13.4241376953125,0.08248305289745331,0.014230112339183688,-0.02315810424883384
1744664793282197800,13.44419775390625,0.0908662658393383,-0.017122509312443433,0.00017771063748514278
1744664793302256600,13.464256591796875,0.08218786934316158,-0.01054258293285966,-0.012145321404782588
1744664793322316500,13.484316650390625,0.06752630678415299,0.008847725181095301,-0.014475113775930366
1744664793342376700,13.504376708984376,0.09222411018908024,0.0021217413943260908,0.005898661550576798
1744664793362436600,13.5244365234375,0.06484510487616062,0.020270451949350534,0.040150315412227064
1744664793382496500,13.54449658203125,0.08624035960435866,0.023471659143455326,0.03163837065729312
1744664793402556700,13.564556640625,0.07322364164292812,0.0051660409936681384,0.028460902815090956
1744664793422615600,13.584615478515625,0.0932756650686264,0.01577325012795627,0.00783884496607352
1744664793442675700,13.60467578125,0.0738256991893053,0.007026354972831905,-0.0037334326409734784
1744664793462735600,13.624735595703125,0.07517302214503288,0.0004142068240791559,0.007493607158400118
1744664793482795800,13.644795654296875,0.08684241715073585,-0.012997355673834681,-0.019165169005014467
1744664793502855400,13.66485546875,0.059009822851419445,-0.028274492847919462,-0.010020038629788905
1744664793522915600,13.68491552734375,0.09073767102360725,-0.01953895933702588,-0.003912931093457155
1744664793542974700,13.704974609375,0.08310732227563858,-0.008925430059805511,-0.000052346675167791545
1744664793563034600,13.72503466796875,0.08370470364689826,-0.0015611849021166563,0.01936588149217423
1744664793583094500,13.745094482421875,0.07382628371119498,0.007775054448284208,0.007328619005170184
1744664793603154700,13.76515478515625,0.06844108354151249,0.02854768376611173,0.005133951655239798
1744664793623214600,13.785214599609375,0.08355331247746944,0.01481050604302436,-0.0007353011377621442
1744664793643274500,13.8052744140625,0.07860942633450031,0.005517813573405146,-0.005867277748335618
1744664793663333600,13.825333740234376,0.07127893731594086,0.0012880305165424942,-0.003342410329659469
1744664793683393500,13.8453935546875,0.08878829052150249,-0.017468765466846524,-0.004277458123490214
1744664793703453400,13.865453369140624,0.0681441464215517,-0.009964965707994997,-0.01738168083843775
1744664793723513600,13.885513671875,0.06439969919621943,-0.017208945486880838,-0.027327307091723194
1744664793743573800,13.90557373046875,0.07652151414453982,0.01344561089798808,-0.03866972603222821
1744664793763633400,13.92563330078125,0.07008592813909054,0.009881086816824971,-0.03502125456123613
1744664793783692500,13.945692626953125,0.07203180150985718,0.02094572086241096,-0.012176798821857664
1744664793803752700,13.965752685546875,0.07741992428898811,0.016141279722750188,-0.016297305968101135
1744664793823812400,13.985812255859376,0.08924363307356833,-0.003061068071052432,0.022753080811630935
1744664793843872300,14.005872314453125,0.08789864820539951,0.014850691922940314,0.013996940620837266
1744664793863932200,14.02593212890625,0.08071195157170295,0.0029746684292331336,0.026659826476185117
1744664793883992300,14.045992431640625,0.08355448152124881,-0.005236402816139162,0.013436594191181938
1744664793904051200,14.06605126953125,0.07622282345890999,-0.0010578750224784015,0.007248306610842701
1744664793924111000,14.086111083984376,0.09447744207382201,-0.013317783267237246,0.010491816293424926
1744664793944171300,14.106171142578125,0.07876724724471569,0.0008458031743764876,0.01929717733724974
1744664793964231200,14.126231201171874,0.07397650583684444,-0.006303922449797391,-0.0006984100433415733
1744664793984291300,14.146291259765626,0.07996200998723506,-0.0015063859749585389,0.019010053791827523
1744664794004351200,14.166351318359375,0.08804302511215209,0.01854406654816121,-0.0017857509056106208
1744664794024410400,14.186410400390624,0.0838555102944374,0.011451003014668821,-0.01597029337028507
1744664794044470300,14.20647021484375,0.07772446019351482,0.029029585531540215,-0.028627493836940264
1744664794064530200,14.2265302734375,0.07428396435081959,0.026609811038710175,-0.016193466567713765
1744664794084590000,14.246590087890626,0.08536065416038036,0.012766359929554164,-0.009964536449732258
1744664794104650200,14.266650146484375,0.07668167314231396,0.02325308448933065,0.00792892755245557
1744664794124710400,14.28671044921875,0.0877595319956541,0.006098426472954451,0.02423693529437296
1744664794144769300,14.306769287109375,0.08940203850567341,-0.02539959499873221,0.01479648893411504
1744664794164829200,14.3268291015625,0.06620762540102004,-0.028679712647944687,0.006110121477325446
1744664794184889300,14.346889404296874,0.08805880720317363,-0.01471058933250606,-0.006119768371793907
1744664794204949200,14.36694921875,0.09045768503844738,0.001029489178210497,0.0017884748689481057
1744664794225009200,14.387009033203125,0.07938391783833504,0.0109236181396991,0.012465118810522835
1744664794245069300,14.4070693359375,0.08491641752421855,0.01520962489582598,0.019187593182665295
1744664794265128200,14.427128173828125,0.0793809952288866,0.0178783691810444,-0.0031082956131082027
1744664794285188000,14.44718798828125,0.08461889588236808,0.02401398585923016,0.007176978957280516
1744664794305248300,14.467248291015625,0.07624561981260776,0.0023097747797146437,-0.021112515096948482
1744664794325308400,14.487308349609375,0.07370996385514736,-0.0023510931707918644,-0.03472129665041575
1744664794345368000,14.5073681640625,0.05605740278661251,0.01445716256070882,-0.023185501429124268
1744664794365427200,14.52742724609375,0.08673778773248195,-0.013767938187532126,-0.0044599613838130605
1744664794385487400,14.5474873046875,0.07551964362561703,-0.0017492182875052094,-0.004365654713462572
1744664794405547300,14.56754736328125,0.08868892180025577,0.0036237434551119802,-0.004589967271918431
1744664794425607200,14.587607177734375,0.07058569435477256,-0.0018339008962735533,0.008874138263985514
1744664794445667300,14.607667236328124,0.07881225543022155,0.010217186903394758,0.009581807042728178
1744664794465727200,14.627727294921876,0.08569500068128108,-0.005631539613567292,-0.007265812584781087
1744664794485786000,14.6477861328125,0.07626023285984992,-0.002322634261287749,-0.017599559089529794
1744664794505846300,14.66784619140625,0.0807487764507532,-0.0003628419630229473,0.015067186501121613
1744664794525906400,14.687906494140625,0.07311667413711548,0.00292461874242872,0.0040488369993865484
1744664794545966000,14.707966064453124,0.09166706082820891,0.00048442251607775684,0.008224442183598876
1744664794566026200,14.728026123046876,0.0668283876478672,-0.011656060600094496,0.010536210274288896
1744664794586086400,14.74808642578125,0.06294365516901015,0.0021433687042444944,0.003725719691975973
1744664794606145000,14.76814501953125,0.06025543899834156,0.020429624566435812,0.014806859631079713
1744664794626205200,14.788205078125,0.09361936393976211,0.016494477074593304,-0.005190600046189502
1744664794646265300,14.808265380859375,0.0770107589662075,-0.00388162720631808,0.013869932690705172
1744664794666325200,14.8283251953125,0.06728022306859494,-0.0031881285168230532,0.00967869382923236
1744664794686385200,14.84838525390625,0.07086977199316025,-0.007338818455487489,0.0027000184896052814
1744664794706444300,14.8684443359375,0.09062485829889774,-0.01069806575551629,-0.0045086365308612585
1744664794726504400,14.88850439453125,0.09017302287817001,0.008204678037203848,0.006086651553481351
1744664794746564000,14.908564208984375,0.08194003206193447,0.01259505848325789,-0.005988826335349586
1744664794766624300,14.928624267578124,0.09735328977108001,0.01813059037644416,-0.022360195336793547
1744664794786684200,14.94868408203125,0.05874971061050892,0.0101317371096462,-0.01729001821632264
1744664794806744300,14.968744384765625,0.06803250274062156,0.005533960990607738,-0.012970600097649729
1744664794826803700,14.9888037109375,0.06639116527438163,0.011414287733472884,-0.008463356372853741
1744664794846863600,15.008863525390625,0.07940905227959155,-0.0005341799419373274,0.021626917192758992
1744664794866923500,15.028923583984374,0.07088087790906429,-0.011628478473424912,-0.004204404303722549
1744664794886983700,15.048983642578126,0.08075579071342945,0.010527531494200229,0.00620005108336918
1744664794907043600,15.069043701171875,0.08987667028009891,0.009504873915575444,0.0039331518975784996
1744664794927102500,15.0891025390625,0.06772855135798454,-0.006028247313573956,0.005565365342446602
1744664794947162600,15.10916259765625,0.07640753237605094,0.0020373145138844846,-0.01256820472566178
1744664794967222800,15.129222900390625,0.06848316911756992,0.0020408581778407096,-0.007961642511968967
1744664794987282400,15.149282470703126,0.0806143364161253,-0.009419460654444992,-0.00740588549246313
1744664795007342600,15.169342529296875,0.08465221363008021,-0.004882328681461513,0.006237478750618175
1744664795027401700,15.189401611328124,0.08450608315765858,-0.00437383117005229,0.005420639092533383
1744664795047461600,15.209461669921875,0.0647539194613695,0.0049173634622246025,-0.01500282059459714
1744664795067521500,15.229521484375,0.0804699595093727,0.009482223692350088,-0.024392061924003065
1744664795087581700,15.249581787109374,0.07329027713835239,0.0125472007535398,0.011948376343864947
1744664795107641600,15.2696416015625,0.08735621189177036,-0.0034678587736561893,0.013195013120805378
1744664795127701500,15.289701416015625,0.06371171693205833,0.011825206621922551,0.03258349460385507
1744664795147760600,15.3097607421875,0.09109598294198512,-0.0016515300666913389,0.018157567431626373
1744664795167820800,15.32982080078125,0.07763035216927527,-0.007530468570068478,-0.004544086870155297
1744664795187880400,15.34988037109375,0.06490940228402614,-0.024695282654277978,-0.02087205740457866
1744664795207940600,15.369940673828125,0.08376315583586692,-0.014367073124460875,-0.02843399654185632
1744664795228000800,15.390000732421875,0.07328326287567614,-0.007516001653298735,-0.017794885298807638
1744664795248059400,15.410059326171876,0.08555763803720473,-0.00041661797687411305,0.005360773547901772
1744664795268119600,15.43011962890625,0.08481237262785435,0.032152868651226164,0.019778935255494432
1744664795288179700,15.4501796875,0.09139934980273247,0.03508209050353616,0.00916150383800268
1744664795308239600,15.470239501953126,0.06715922703742981,0.03730966689251363,0.005472264248493593
1744664795328299500,15.490299560546875,0.07613222256600856,0.03338222778309136,0.009907684846094344
1744664795348358700,15.510358642578124,0.08601181154549122,0.01879405925385654,-0.0001190529525396414
1744664795368418800,15.530418701171875,0.08078034063279628,-0.012013459203019737,-0.016471454675321
1744664795388478500,15.550478515625,0.07554127093553542,-0.03293576265722513,-0.015022390661458484
1744664795408538600,15.57053857421875,0.06491700106859206,-0.026370851183682677,-0.012659561387100256
1744664795428598500,15.5905986328125,0.09544365675747395,-0.03595017857495695,0.0025738919088849795
1744664795448658700,15.61065869140625,0.05908464165329933,-0.018504245994426308,0.011767336671554949
1744664795468717600,15.630717529296875,0.08721358855068684,0.0011527867643162607,0.0034971031344495714
1744664795488777700,15.65077783203125,0.07314999188482761,0.01082808534335345,0.009464149179542436
1744664795508837600,15.670837646484374,0.07763502834439277,0.017513919782824815,0.009167901612748391
1744664795528897500,15.6908974609375,0.09544307223558425,0.03291366042327135,0.0011656051466939971
1744664795548957700,15.710957763671875,0.07209843700528144,0.036514315263740715,-0.00736442325420212
1744664795569016600,15.7310166015625,0.07629062799811363,0.008030746242403984,-0.038942446592962365
1744664795589076500,15.751076416015625,0.07539338689744472,-0.004255428954772651,-0.029618532434594814
1744664795609136600,15.77113671875,0.07463935365974902,-0.009231719530001282,-0.018695087824831716
1744664795629196500,15.791196533203125,0.08033025877773761,-0.022958850783109663,-0.024314535141806117
1744664795649256700,15.811256591796875,0.0655254883557558,-0.010886318336613476,0.012265584500296972
1744664795669315600,15.831315673828126,0.08228139284551143,-0.01830415684506297,0.019533504560485016
1744664795689375700,15.851375732421875,0.0777951873421669,0.01022569900341332,0.022806365918426306
1744664795709435600,15.871435546875,0.07195932079553603,0.023390702861733732,0.03760377501785988
1744664795729495600,15.89149560546875,0.10831365972459316,-0.006818228647485375,0.02255507173821097
1744664795751436800,15.913436767578125,0.07359013686776161,-0.0035217078527435657,0.01111951060455758
1744664795771496400,15.933496337890626,0.0860123960673809,-0.0013247092651203275,-0.017927268090378493
1744664795791556600,15.953556640625,0.08301847494840621,0.0021383272029459476,-0.01743231504713185
1744664795811616800,15.97361669921875,0.07913198890388011,-0.01951521313525736,-0.021700126276153604
1744664795831675600,15.993675537109375,0.08601765676438808,0.0024452011950314044,-0.02806122683986323
1744664795851735600,16.013735595703125,0.05683890855312347,0.017242190169356762,-0.019808873736031817
1744664795871795500,16.03379541015625,0.07554419354498386,0.011838212233968078,0.0002370190596906468
1744664795891855400,16.05385546875,0.06521393818855285,0.032302908113785084,0.011899016210227273
1744664795911915500,16.07391552734375,0.08810790704190731,0.03336458252854645,0.014921533236023968
1744664795931974400,16.093974365234374,0.07597966235280036,0.018123393450677393,0.007450546618096996
1744664795952034600,16.11403466796875,0.07314122405648231,0.03311612419281155,0.008585409566655289
1744664795972094500,16.134094482421876,0.07972761670947075,-0.0055426922863349316,0.0026595220824354327
1744664795992154600,16.154154541015625,0.066118193551898,0.0017609452579170465,0.01838121326980181
1744664796012214500,16.174214599609375,0.08153203578293323,-0.020853658664785325,0.0045141324065974915
1744664796032273400,16.1942734375,0.06970715795457362,-0.019572167486883698,-0.002520741516118869
1744664796052333600,16.21433349609375,0.08602233293950558,-0.017579495832324026,-0.0164349517399678
1744664796072393500,16.2343935546875,0.07315408353805541,-0.015042743896320461,-0.006018029596947599
1744664796092453400,16.254453369140624,0.06911036110520362,0.0026874855183064935,-0.008280364488763734
1744664796112513500,16.274513427734377,0.07853519205451011,0.019804989862069487,0.010613266699027735
1744664796133198600,16.295198486328125,0.07973112384080887,0.02296780127454549,0.01368550918464316
1744664796153258500,16.315258544921875,0.09514145894050598,0.016739757072553037,-0.0014650744337472133
1744664796173318700,16.335318603515624,0.07164601706266403,0.009310629985108971,-0.003676852748682722
1744664796193378600,16.355378662109374,0.0897509980738163,-0.004414601571857929,-0.017811372926016335
1744664796213438500,16.3754384765625,0.06027355917692184,0.006021744507551193,-0.017470489349763373
1744664796233497600,16.39549755859375,0.08421674482226371,-0.005244439992122352,-0.009217647622164805
1744664796253557500,16.4155576171875,0.08451543550789356,-0.0002782324194908142,-0.011701262865134048
1744664796273617400,16.435617431640626,0.07688099510669708,0.0033647271927446125,-0.011456398425705264
1744664796293677600,16.455677490234375,0.0792716896355152,0.006296469795703887,-0.0008915762615739367
1744664796313737700,16.47573779296875,0.07956453510224819,0.004802249182574451,0.011466474578436463
1744664796333796600,16.495796630859374,0.08180500750541686,0.02511606534961611,-0.0007142332335584796
1744664796353856500,16.5158564453125,0.07807108167409896,0.023020006385818123,0.0025029272982152176
1744664796373916700,16.535916748046876,0.07926876702606678,0.00999448406342417,-0.0004120354165905155
1744664796393976600,16.5559765625,0.07313187170624733,-0.0007396028535440564,-0.0006804108790587634
1744664796414035500,16.576035400390627,0.07747077769339084,-0.004169102378189564,-0.0007876272633322515
1744664796434095600,16.596095703125,0.0855547154277563,-0.014271394197642803,-0.001082486590638291
1744664796454155500,16.616155517578125,0.07897475251555443,-0.01002736341971904,0.009297064967348705
1744664796474215400,16.63621533203125,0.07717851674854755,-0.0058144949650391934,0.012228654589969664
1744664796494275600,16.656275634765624,0.08451309742033482,-0.004527816155366599,0.023088920603296717
1744664796514334500,16.67633447265625,0.08630290344655513,0.009365246249176562,0.010346633385785389
1744664796534394600,16.69639453125,0.07402969732880592,-0.003131904817558825,0.0031403073197230694
1744664796554454500,16.71645458984375,0.08000701817274093,-0.010274068189784883,-0.009515641904762014
1744664796574514700,16.7365146484375,0.07641220855116844,0.012985628703422843,-0.0060408533501089545
1744664796594574300,16.75657421875,0.06443944668471813,0.012130217450484633,-0.01658850518373074
1744664796614633500,16.776633544921875,0.08238894487321376,0.013923530608043074,-0.008583213042991701
1744664796634693600,16.796693603515624,0.08897066135108471,0.008738711848668753,-0.021118504163029135
1744664796654753500,16.81675341796875,0.06816986538469791,-0.010064078700914978,-0.01539543892466463
1744664796674813400,16.8368134765625,0.06996434758603573,-0.00210391347669065,0.010669447015807963
1744664796694873600,16.85687353515625,0.06816635825335979,0.013810717883333563,0.009197666563349775
1744664796714932500,16.876932373046873,0.08342062600851058,-0.009783763922192155,0.00764965167006012
1744664796734992400,16.896992431640626,0.08326865031719208,0.0016440408799797295,0.004033064041519537
1744664796755052500,16.917052490234376,0.0656125821173191,-0.00272580823469907,0.007305014367296826
1744664796775112700,16.93711279296875,0.08341887244284152,0.003124634826555848,0.007568652005854528
1744664796795172400,16.95717236328125,0.07384206580221653,-0.00494827005714178,-0.005642081557179335
1744664796815231500,16.9772314453125,0.09000701866149902,0.0006305529884994029,-0.008857623237313237
1744664796835291100,16.997291015625,0.08326689675152302,0.010185038199461996,0.009938449877116362
1744664796855351300,17.017351318359374,0.08102233269512653,0.014821904219873248,-0.007324305872945114
1744664796875411000,17.037410888671875,0.09523790505230426,-0.00015171996299177408,0.005786631993867922
1744664796895470000,17.057469970703124,0.0757820939540863,0.013235219550319016,-0.004129042079148348
1744664796915530200,17.0775302734375,0.07966916452050209,0.013017923537828028,0.005682584814215078
1744664796935590100,17.097590087890627,0.08311141392886638,-0.005259893289580941,0.00127830599026056
1744664796955650000,17.117650146484376,0.09089841454327106,0.0010604688383638859,-0.005969308784126769
1744664796975710200,17.137710205078125,0.07369125915467739,-0.0033053616883233186,0.015760931785788853
1744664796995769000,17.15776904296875,0.08222235613465309,-0.017714849182404575,-0.0039060994938714426
1744664797015829000,17.1778291015625,0.07099719776511192,-0.04100600065980106,-0.03364352733409032
1744664797035889200,17.19788916015625,0.08626607856750487,-0.033346645013056696,-0.02450818998380564
1744664797055949300,17.21794921875,0.06995265714824199,-0.01697787667736411,-0.013519897693616802
1744664797076009000,17.238009033203124,0.09075403763651847,0.010822276657074689,0.014853600832656957
1744664797096068000,17.258068115234376,0.07877893768250942,0.033206286694295706,0.036943233316473194
1744664797116128300,17.278128173828126,0.0837117179095745,0.04949855572767555,0.009519110220193397
1744664797136188000,17.29818798828125,0.07832651773989201,0.0415382443729788,-0.0013883924683439546
1744664797156248000,17.318248046875,0.07503624402284621,0.03147654029224068,0.0010796553127351215
1744664797176307200,17.33830712890625,0.0772808080792427,0.01380954883955419,-0.02512459343265509
1744664797196367000,17.3583671875,0.08236731756329536,0.013839542119018732,0.004118495568959042
1744664797216427000,17.378427001953124,0.09823241069316864,-0.014515066760405898,0.013929209146869834
1744664797236487200,17.398487060546874,0.06427110438048839,-0.017796536116488276,-0.014263030511385295
1744664797256547300,17.41854736328125,0.09000584961771964,-0.02476166242137551,-0.0017948475275188682
1744664797276606200,17.438606201171876,0.06771101570129394,-0.005649002205021679,-0.016117499271652194
1744664797296666000,17.458666015625,0.07145370936095714,0.0003013940993696451,-0.020743626985629086
1744664797316726300,17.478726318359374,0.06936170551776885,-0.003353329015895724,-0.010811647948494646
1744664797336786000,17.498785888671875,0.08567103528380393,0.016427147459425032,-0.00006160769385751336
1744664797356846000,17.51884619140625,0.08387421499490737,0.009722169928066432,0.011419306401885114
1744664797376905200,17.5389052734375,0.06666355247497559,0.006774974027648568,0.031510867253527974
1744664797396965000,17.558965087890623,0.08880816426575183,0.019089790797419844,0.024982933639374094
1744664797417025000,17.57902490234375,0.06815992851257324,0.007242226213216781,0.0006336491278838366
1744664797437085200,17.599085205078126,0.09270634074807166,-0.004701821015402674,-0.004041882102214731
1744664797457144000,17.61914404296875,0.07744272064268588,-0.011120711614377795,-0.021782975404150782
1744664797477204000,17.639203857421876,0.07071136656105519,-0.00578713203407824,0.0010419376678299159
1744664797497264000,17.65926416015625,0.08508300626277923,-0.007276859135180711,0.007469376899441704
1744664797517324300,17.67932421875,0.10243687664568424,-0.02650459709856659,0.0010944464564905502
1744664797537383200,17.699383056640624,0.08986907149553298,-0.009330503729358315,-0.012938421710964758
1744664797557443000,17.719443115234377,0.0888274534881115,0.00011672171484678983,0.004010402401851024
1744664797577503200,17.739503173828126,0.07476093421280383,0.022122107698023318,-0.0006598338819108903
1744664797597563100,17.759563232421876,0.09331424351334572,0.027403116840869185,-0.0033526668621925637
1744664797617623000,17.779623046875,0.08224690605401992,0.028327976600825786,0.01905904859928414
1744664797637682200,17.79968212890625,0.08539104929864406,0.02337050032392144,-0.0017611370541620998
1744664797657742000,17.8197421875,0.08105974209606646,0.003125109750591218,0.002697136979352217
1744664797677802000,17.839802001953124,0.07986731744110584,0.0006304433906450868,-0.003648827664018608
1744664797697862100,17.859862060546874,0.06759820297658443,-0.019160298750363288,-0.015536596394446678
1744664797717922300,17.87992236328125,0.0878033711373806,-0.0038405280109494924,0.004234516314195935
1744664797737981200,17.899981201171876,0.07673778724372386,-0.0029626491978764534,0.018250787256588227
1744664797758041000,17.920041015625,0.03499474101364612,-0.018503405744209885,0.01016490187702002
1744664797778101200,17.940101318359375,0.05698971520066261,-0.0017154986809939145,0.01892409710800275
1744664797798161200,17.9601611328125,0.07942775698006152,0.025689189062453804,0.005687046360201202
1744664797818220000,17.980219970703125,0.08451134385466576,0.012748605077154933,-0.002017278656142298
1744664797838280700,18.00028076171875,0.08181319081187248,0.008807320105470716,-0.001136200955696404
1744664797858340600,18.020340576171876,0.0789671537309885,-0.007750102670118212,0.008571636769629548
1744664797878400500,18.040400390625,0.07777122194468974,0.0016519319254904984,0.004942386022338177
1744664797898459600,18.060459716796874,0.06639993310272693,-0.004658164536766708,-0.010990571012243162
1744664797918519600,18.08051953125,0.1066477723389864,-0.01459657103139907,-0.011213627761951646
1744664797938579500,18.100579345703125,0.07267477558851242,-0.0011599836900830268,-0.019803215746802744
1744664797958639600,18.1206396484375,0.07431494401097297,0.00808594702836126,-0.010752830433344934
1744664797978699800,18.14069970703125,0.052015433919429775,0.019389577461592852,0.014863311659207101
1744664797998758700,18.160758544921876,0.06907821240127086,0.000891907338425517,0.018288591666461435
1744664798018818600,18.180818603515625,0.09002747692763804,0.007789009908400476,0.030761096915707456
1744664798038878700,18.200878662109375,0.09287000687718391,0.011542626820877193,0.012229538222670089
1744664798058938600,18.220938720703124,0.0814940418601036,0.007419811269827187,-0.034489437823032494
1744664798078997500,18.24099755859375,0.08269581886529923,-0.007951433928497136,-0.006201105962716974
1744664798099057700,18.2610576171875,0.08015431768894195,-0.013098039569333196,-0.01864026378149865
1744664798119117600,18.28111767578125,0.08045008576512336,0.00419452908039093,0.010664544795115943
1744664798139177500,18.301177490234377,0.08448971654474735,-0.006282441270351409,0.020942416943761054
1744664798159236600,18.321236572265626,0.09466448907852172,-0.0010205752193927764,0.015207446638471445
1744664798179296500,18.341296630859375,0.08134908043146133,0.019577537781745195,-0.0019013355427188797
1744664798199356700,18.361356689453125,0.06189093124568462,0.013262545948661863,-0.013516883752623107
1744664798219416600,18.38141650390625,0.0819429546713829,0.001572181220166385,-0.01501627601450309
1744664798239476700,18.401476806640623,0.09211772720515728,-0.002141980464756489,-0.018832850044418592
1744664798259535600,18.42153564453125,0.08614215992689132,-0.005656856717914343,0.01730879598202882
1744664798279595500,18.441595458984374,0.07417641232311725,0.009336604676581919,0.020765229179372544
1744664798299655700,18.46165576171875,0.08165653894543647,-0.004084748562984168,0.01998156570510473
1744664798319715600,18.481715576171876,0.09496960950493812,0.011883914539217949,0.005493832192907575
1744664798339774700,18.501774658203125,0.07911211515963078,0.01837152299284935,0.003861577648844104
1744664798359834600,18.521834716796874,0.07806699002087115,0.007400814308412372,-0.027007849895989054
1744664798379894500,18.54189453125,0.06055939038097858,-0.0063715077932924025,-0.02313784691209439
1744664798399954400,18.561954345703125,0.08076397401988505,-0.013494162747450172,0.004753071712027304
1744664798420013600,18.582013671875,0.08645429461598396,-0.012520020485669374,-0.006491053936176467
1744664798440073500,18.602073486328123,0.07133680498301982,-0.011072525091096758,0.002327301303250715
1744664798460133600,18.622133544921876,0.08614625158011913,0.0037016309969127178,-0.01812777279827278
1744664798480193500,18.642193603515626,0.06923427974581718,0.0012339622417464851,-0.009011249746312388
1744664798500252400,18.66225244140625,0.08778758904635905,0.01279131170772016,-0.012752872543607373
1744664798520312600,18.6823125,0.0698304920732975,0.021784728969819842,-0.0034583191937534136
1744664798540372700,18.702372802734374,0.0834457604497671,0.009705328391119837,0.015203544498200062
1744664798560432600,18.7224326171875,0.06893091288506985,0.015388269398361444,0.0077829500603722405
1744664798580492500,18.742492431640624,0.06937807213068008,0.0007733224600553512,0.016135167359083425
1744664798600551700,18.7625517578125,0.10454641614556312,-0.00574453500136733,0.0011198640255373903
1744664798620611600,18.782611572265626,0.09078209468722342,-0.0005579626763239502,-0.0021256960502360014
1744664798640671500,18.80267138671875,0.08614625158011913,-0.004377776692807674,-0.003205269164580386
1744664798660731600,18.822731689453125,0.055771571582555766,-0.009363931074924767,-0.00887278199053835
1744664798680790800,18.842790771484374,0.09317629634737967,-0.011660334916412829,-0.003897662742377724
1744664798700850400,18.862850341796875,0.0680395170032978,0.014028306156769393,0.003437185074179433
1744664798720910600,18.88291064453125,0.0856944161593914,-0.004322977765649557,0.014640869114140514
1744664798740970500,18.902970458984374,0.08404840251803397,0.0027027561526745555,0.010474200721632222
1744664798761029400,18.923029296875,0.0897334624171257,0.00528824260123074,0.010754702730022835
1744664798781089500,18.943089599609376,0.07701777322888374,0.01643193323239684,-0.01720626033945009
1744664798801149700,18.963149658203125,0.07506897724866866,0.014396920273452997,-0.00827097103933338
1744664798821209600,18.983209716796875,0.06803893248140812,0.003999664095416665,-0.02048185022730613
1744664798841268200,19.003268310546876,0.08389701134860515,-0.0023462343325838446,0.016651307037542574
1744664798861328400,19.023328369140625,0.08703940102756023,-0.011488156687282026,0.0030971531645860523
1744664798881388300,19.04338818359375,0.057709261646866794,0.005591390266269445,0.003371855619852431
1744664798901448200,19.0634482421875,0.08479600601494312,-0.005968333819881082,0.0065449144317070015
1744664798921507300,19.08350732421875,0.08614157540500164,-0.002802380602248013,-0.009713025357096922
1744664798941567200,19.103567138671874,0.08389291969537735,0.0007229805123060942,0.0041481143890880045
1744664798961627100,19.123627197265623,0.07895955494642257,0.019769260961562393,0.001732890490500722
1744664798981687300,19.143687255859376,0.06878653597831726,-0.006160678054206073,-0.010529234827519393
1744664799001746200,19.16374609375,0.07492050868868827,0.011225962087139487,-0.008652855629543774
1744664799021806300,19.183806396484375,0.07177519640028476,0.007102014024928212,-0.006255110305431299
1744664799041866200,19.2038662109375,0.08569558520317078,0.008353877249546348,-0.0019062514631426892
1744664799061926400,19.223926513671874,0.07776654576957226,0.01237133272998035,-0.000781208938988857
1744664799081985300,19.2439853515625,0.08404606443047523,-0.007115019636973738,-0.010751496992784085
1744664799102045200,19.264045166015624,0.07342763978242874,-0.006631400838494301,-0.02028282052386785
1744664799122105300,19.284105224609377,0.08091185805797577,0.008140855553373695,0.002242264784744475
1744664799142165200,19.304165283203126,0.07492576938569545,-0.004263575728610158,0.017145942703669426
1744664799162224400,19.324224365234375,0.0955763432264328,0.0075671838512644165,0.020320065528026315
1744664799182284300,19.3442841796875,0.06983809085786342,-0.013376052793115377,0.015123780093144159
1744664799202344200,19.36434423828125,0.08180851463675498,-0.011427585606463253,-0.024228861585771665
1744664799222404400,19.384404296875,0.07193243278861046,0.00158193542920053,-0.02780093193586217
1744664799242463200,19.404463134765624,0.07881693160533905,0.003650448798947036,-0.015412536189937964
1744664799262523100,19.424523193359374,0.06864449715912342,-0.003441847549565136,0.010688918901258148
1744664799282583300,19.444583251953127,0.07193710896372794,0.011661357829719781,0.018955412411584983
1744664799302643200,19.464643310546876,0.09498305350840092,0.018660094143263993,0.016322433559491763
1744664799322703400,19.484703369140625,0.07253916651010513,-0.0018705796448513865,0.012264831015048548
1744664799342762200,19.50476220703125,0.08196692006886006,0.012487871781736612,0.00489361041059019
1744664799362822400,19.524822509765624,0.06834580647349357,0.003610957038775086,-0.006628928036906291
1744664799382882300,19.54488232421875,0.07612754639089107,0.009264708484150468,-0.008717881406482775
1744664799402941200,19.564941162109374,0.09558160392343998,-0.007818966655246912,0.013378646609000861
1744664799423001300,19.58500146484375,0.06819850695729256,0.006364785791561007,0.017465717276523355
1744664799443061200,19.605061279296876,0.08795242421925067,-0.0015964388785883784,0.013865062436053994
1744664799463121200,19.62512109375,0.07823124067187309,-0.013832308660633862,-0.011735895787097978
1744664799483181300,19.645181396484375,0.0728407798051834,0.008993928718753158,-0.028437398641917386
1744664799503240400,19.665240478515624,0.08975392068326472,0.0021648864163085818,-0.028300659335637465
1744664799523300000,19.685300048828125,0.06611117928922176,0.003648220309242606,-0.018542212517792356
1744664799543360300,19.7053603515625,0.07883096013069152,-0.01057831183336675,0.0039166939531220125
1744664799563419400,19.72541943359375,0.07210077509284019,-0.0028627324873581527,0.015222052835847715
1744664799583479000,19.74547900390625,0.06836100404262542,0.009831475521437823,0.020518677389645017
1744664799603539200,19.765539306640626,0.07868424513638018,0.009860226691886782,-0.012885613811493385
1744664799623599400,19.785599365234376,0.07554010189175606,0.025764519320987164,0.005772724482812918
1744664799643658200,19.805658203125,0.09574643909633158,0.008732464770972729,-0.001089683516405057
1744664799663718100,19.82571826171875,0.05893500404953956,0.00845697229783982,-0.0019624591793864963
1744664799683778300,19.8457783203125,0.07210720483362675,-0.011222528021037579,0.008228131978027521
1744664799703838500,19.86583837890625,0.06641980684697628,-0.01688559528402984,-0.006297243830549996
1744664799723897300,19.8858974609375,0.08047697377204895,-0.012804244254529475,-0.0071141177379642605
1744664799748346400,19.910346435546874,0.07688800936937332,-0.012571458411961793,0.006992009745235554
1744664799768406300,19.93040625,0.06521744531989097,0.016432663884758947,0.030772780503635293
1744664799788466200,19.950466064453124,0.06820259861052036,0.014362323884107171,0.016918940431205554
1744664799808525300,19.970525390625,0.08242050905525684,0.03781926038246602,-0.0027432457099785096
1744664799828585200,19.990585205078126,0.06775894649624824,0.02217497039642185,-0.025270308346545787
1744664799848645600,20.010645751953124,0.06745441059172153,0.0013378610076382755,-0.02501622170433402
1744664799868705500,20.03070556640625,0.08615852653980255,-0.007618292983993888,-0.004039126172836404
1744664799888764700,20.0507646484375,0.07269348028898238,-0.01844732817541808,0.016084487484616692
1744664799908824600,20.070824462890624,0.08481704880297183,-0.008335245614312588,0.03285264181788079
1744664799928884500,20.090884521484377,0.07479366743862628,-0.002694865107163787,-0.001780716254177969
1744664799948944600,20.110944580078126,0.08391980770230292,-0.0007196195114403962,-0.01254948632546002
1744664799969003800,20.131003662109375,0.0695475834786892,0.004985131468810141,-0.026420218167186246
1744664799989063400,20.1510634765625,0.07732932339608668,0.01574840794764459,0.011308338574389926
1744664800009123600,20.17112353515625,0.08031564573049545,0.005713372678123415,0.011697554804396349
1744664800029183700,20.191183837890627,0.08270867834687233,0.01097322943508625,0.025789455116132738
1744664800049242600,20.21124267578125,0.07657879728972912,0.0008232260163873433,0.011516955806792248
1744664800069302500,20.231302490234373,0.08226736432015895,0.002722849092632532,-0.00025021646798122673
1744664800089362700,20.25136279296875,0.07119710425138473,0.004457527398131787,-0.008376696436130442
1744664800109421600,20.271421630859376,0.07359422852098942,0.01382642690911889,-0.003993933040951378
1744664800128854500,20.2908544921875,0.08168108886480331,0.018481120847165584,0.007304249465605243
1744664800148913700,20.31091357421875,0.09125731098353862,0.0077194152709096665,-0.003994143103505485
1744664800168973600,20.3309736328125,0.06536825196743011,-0.0006220043558627366,0.009999139688943977
1744664800189033500,20.351033447265625,0.09169920953214168,-0.004090484184026718,-0.0013712815033388322
1744664800209093600,20.37109375,0.07194938392341137,-0.0077535367362201206,-0.022340207428112626
1744664800229152800,20.39115283203125,0.07285539285242557,0.006424589687399566,-0.01834100455699954
1744664800249212400,20.41121240234375,0.08273731991946696,0.008092522899620234,-0.01895781899780268
1744664800269272600,20.4312724609375,0.07660159364342689,0.00017075345702469348,-0.006425840929569676
1744664800289332700,20.451332763671875,0.07391045486330985,0.0005568301651626825,0.0077331172859878275
1744664800309391600,20.4713916015625,0.08064122442305087,-0.00012161708567291498,0.01629606157579692
1744664800329451500,20.491451416015625,0.08482932376265526,-0.008754640070162713,0.019588209872809237
1744664800349511700,20.51151171875,0.0900643018066883,0.003569638647697866,0.027072996687225532
1744664800369570600,20.531570556640624,0.07660334720909595,0.0221408854637295,0.005392979334050324
1744664800389630500,20.55163037109375,0.07450725171267986,0.015728278475068507,0.009509951949492097
1744664800409690600,20.571690673828126,0.07301146019697188,0.019749679478257894,-0.009546909259282983
1744664800429750800,20.591750732421875,0.08169336382448673,0.01338343238197267,-0.010739694673847406
1744664800449809700,20.6118095703125,0.08153846552371978,-0.0074605086063966155,-0.009499789031792898
1744664800469869600,20.63186962890625,0.07376549343466758,-0.012871281608752906,-0.0074867390261963
1744664800489929700,20.6519296875,0.07780570873618126,-0.018856274302490053,-0.012350029647047631
1744664800509989400,20.6719892578125,0.07630407200157642,-0.014843604595027864,-0.005416499490244314
1744664800530048500,20.692048583984374,0.0905219824463129,-0.002926920297369361,-0.005568091589072719
1744664800550108700,20.712108642578126,0.08319207794964313,0.008545381233654916,0.00216061438327888
1744664800570168600,20.73216845703125,0.08948328704833984,0.009147438780032097,0.019241275581682565
1744664800590228500,20.752228515625,0.0582101969063282,0.012419994177296757,0.022683906299248338
1744664800610287600,20.77228759765625,0.09622340895831584,0.0022641820723190904,0.02267718429751694
1744664800630347500,20.792347412109375,0.07288344990313053,-0.00005399520955979824,-0.0025506594470585697
1744664800650407700,20.81240771484375,0.06570201396644115,0.0041119653634727,0.0021146768992999568
1744664800670466600,20.832466552734374,0.07693067946732043,0.00337517552152276,-0.012199588325689546
1744664800690526500,20.8525263671875,0.07198971593379974,0.002825030825473368,-0.021146794109174513
1744664800710586600,20.872586669921876,0.09952011241614818,-0.014472031336277722,-0.033961246947175824
1744664800730646500,20.892646484375,0.05672668035030365,-0.014096001098118722,-0.02864107483772095
1744664800750705400,20.912705322265627,0.08651099323928356,0.005369198882952332,-0.022106300490826833
1744664800770765600,20.932765625,0.07543313438594342,0.004281768972426652,-0.010817472617793828
1744664800790825700,20.95282568359375,0.08965221387445926,-0.005960954231023788,0.013731462651642504
1744664800810885600,20.9728857421875,0.08007073105871677,-0.0030033830670639873,0.013743235287826974
1744664800830944800,20.99294482421875,0.07348784553706646,0.005784392087720334,0.007922340264753438
1744664800851005000,21.0130048828125,0.08111877880692482,0.0025136633213609454,0.021291853719227948
1744664800871064600,21.033064697265626,0.08172142087519169,0.006153115802258253,0.024968971329391933
1744664800891123700,21.053123779296875,0.09249941999912262,0.01039049764368683,0.018694320639851502
1744664800911184000,21.073183837890625,0.06930383785068989,-0.010976955762133,0.023307250945537816
1744664800931243800,21.093243896484374,0.07588555432856083,-0.008981251900270581,-0.0015191952241817488
1744664800951303700,21.1133037109375,0.07379238144159317,-0.00079363459572196,-0.006205142817017622
1744664800971362800,21.13336279296875,0.08277239123284816,-0.0026383491469547152,-0.013673056128446477
1744664800991422700,21.153422607421874,0.07723638441562652,-0.007583806192502379,-0.026728932489908763
1744664801011482600,21.173482666015627,0.07903320470452309,0.00046560821775346994,-0.022152507402864282
1744664801031542800,21.193542724609376,0.061817866009473796,-0.0019305662037804722,-0.006814655300776939
1744664801051601700,21.2136015625,0.08650397897660732,-0.014714059931226074,0.00542359595131129
1744664801071661800,21.233661865234374,0.07048924824297428,0.017546799139119683,0.006531447595357894
1744664801091721700,21.2537216796875,0.08410276305377483,0.0026661870019510387,0.015006999012792947
1744664801111780600,21.273780517578125,0.09352642495930194,-0.004739486144669354,0.01120345342780929
1744664801131840800,21.2938408203125,0.0713771369934082,-0.007083674650639295,0.016197562787518837
1744664801151900700,21.313900634765623,0.08200491399168967,-0.009253273774683475,0.022261413420725146
1744664801171960800,21.3339609375,0.07931026808023452,-0.006690474081970751,-0.002023338504170533
1744664801192019700,21.354019775390626,0.08005319540202617,-0.0038679274745285507,0.002430896391754504
1744664801212079900,21.374079833984375,0.07047814232707023,-0.003307224851846695,-0.004442366361618042
1744664801232139800,21.394139892578124,0.08363982171714306,0.014639862183853982,-0.004513068394095171
1744664801252198700,21.41419873046875,0.08034545634686946,0.008692863412946462,-0.012940896795841398
1744664801272258800,21.4342587890625,0.06672609631717205,0.00785210173986852,-0.01622409460141789
1744664801292318700,21.454318603515624,0.0833370393782854,0.014874730385653673,-0.022377943339326883
1744664801312378600,21.474378662109373,0.08034136469364166,0.014192629873007534,0.005921667966828682
1744664801332437800,21.494437744140626,0.09322364262044429,-0.005257336006313562,0.00629207446508808
1744664801352498000,21.514497802734375,0.06195639769732952,0.010611556515842675,0.011347054016427136
1744664801372557600,21.5345576171875,0.09174129510819912,0.01733107402920723,0.016169827680510934
1744664801392616700,21.55461669921875,0.08815349974930285,-0.017909531504288315,0.000890188022085931
1744664801412676900,21.5746767578125,0.09084346948564052,-0.015146788792684673,0.00917178092013346
1744664801432736500,21.594736572265624,0.07617956883907318,-0.01307053050789982,0.005100455811014398
1744664801452796700,21.614796630859374,0.07364332835972309,-0.009647826050221919,0.0003197129240608774
1744664801472855800,21.634855712890626,0.06989771209061145,-0.005349763530120253,0.01383200498324586
1744664801492915700,21.654915771484376,0.07872516166865826,0.0005243526676669717,-0.005121311369375325
1744664801512975600,21.6749755859375,0.07453530876338481,-0.006211823719553649,0.00483836167557165
1744664801533034800,21.69503466796875,0.07872399262487888,0.018216003637574613,0.010915934873453806
1744664801553094700,21.7150947265625,0.049989481049776074,-0.013551117099076509,0.002399702102469746
1744664801573154600,21.735154541015625,0.08290916935503483,0.01773585543781519,-0.0099127560301451
1744664801593214700,21.755214599609374,0.11298925032019615,0.016320910605974494,-0.02177716215129476
1744664801613273600,21.775273681640623,0.052989831909537315,0.01574084569569677,-0.011672087002999614
1744664801633333800,21.795333740234376,0.0851625012397766,0.009145246822945773,-0.012852629423921461
1744664801653393700,21.8153935546875,0.08471475747227668,-0.00612582593653351,0.007773341981810517
1744664801673452500,21.83545263671875,0.06376724651157856,-0.013192659050226211,0.007897607682296075
1744664801693512700,21.8555126953125,0.102821492049098,-0.006569331920333207,0.008077923552109859
1744664801713572900,21.87557275390625,0.0748410137116909,-0.00315543182361871,0.007382554849225562
1744664801733632800,21.8956328125,0.08321721239089966,-0.0009832388836890458,-0.0002533377235406078
1744664801753691600,21.915691650390624,0.09488193122148514,-0.0003791355106979608,0.0052841600811574605
1744664801773751800,21.935751708984377,0.0674994187772274,0.005440839347057044,0.02810917818441521
1744664801793811700,21.955811767578126,0.080517890304327,0.003191745246015489,0.010224260531575418
1744664801813870600,21.97587060546875,0.07947393420934677,0.0002639481658115983,0.01248696303286124
1744664801833930200,21.99593017578125,0.08127367710769176,0.01574029770642519,0.003998876360838767
1744664801853990400,22.015990478515626,0.07992869223952292,0.009419972111098468,0.005524380311509594
1744664801874050000,22.036050048828123,0.06855798791944981,0.015364377066120505,-0.030815592165477572
1744664801894109200,22.056109130859376,0.08951075957715511,0.0037635172519832846,-0.03919823428520467
1744664801914169300,22.07616943359375,0.09085925157666205,-0.008971570756472647,-0.02934787596678361
1744664801934229200,22.096229248046875,0.0794897163003683,-0.010243709584139287,-0.012562615235091652
1744664801954288000,22.1162880859375,0.08608078512847422,0.0032146146649494767,0.01133196376186097
1744664801974348300,22.136348388671873,0.0657300710171461,0.002913805087469518,0.016275639842275993
1744664801994408200,22.156408203125,0.10104746811389922,0.007649711035564542,0.02160589723761659
1744664802014468000,22.176468017578124,0.08278525071442126,0.017517646109871565,0.009807343443890568
1744664802034527200,22.19652734375,0.07694704608023166,0.001399966458417475,-0.00012577267098240553
1744664802054587100,22.216587158203126,0.08292904309928417,-0.008706234351173042,0.004673040162201505
1744664802074647300,22.236647216796875,0.08501637076735497,-0.010483546222001313,0.008067566554876976
1744664802094706200,22.2567060546875,0.07918459587395191,-0.017603315099328755,0.013144719122117385
1744664802114766000,22.27676611328125,0.07260054130852223,-0.009831548586674035,0.0033112228902406056
1744664802134826200,22.296826171875,0.09264788855910301,-0.009156644999794662,-0.010757077350199687
1744664802154885400,22.316885498046876,0.07199497663080692,0.0028840310037136076,-0.017138976390054447
1744664802174945000,22.336945068359373,0.07214519875645638,0.013345438459143042,-0.012621352835139259
1744664802195005200,22.357005126953126,0.08246084106564522,0.01325038058683276,0.006467300884542055
1744664802215065300,22.3770654296875,0.09726970314085483,0.009781206638924777,0.007198227241286076
1744664802235124200,22.397124267578125,0.08409867140054703,0.01672499789483845,-0.001711502925888635
1744664802255184100,22.41718408203125,0.0601578238427639,-0.0015409458316862582,0.008879688938648905
1744664802275244300,22.437244384765624,0.09218144009113312,-0.0021578356210142373,0.01313075224555796
1744664802295303200,22.45730322265625,0.11013912158608435,0.0027389599772170183,0.003182372346182819
1744664802315363000,22.477363037109374,0.08919102610349655,0.00511021915320307,-0.003001693433476612
1744664802335423200,22.49742333984375,0.08290800031125545,0.0029639278395101427,0.006755349161860067
1744664802355483400,22.5174833984375,0.08649345758259296,0.0026480668233707545,-0.004188343651487957
1744664802375542300,22.537542236328125,0.07318214058876037,-0.011419840691424906,-0.008737462889787275
1744664802395602200,22.557602294921875,0.08979308364987373,-0.02222103802785277,-0.014891238562460057
1744664802415662300,22.577662353515624,0.06928454862833022,-0.006490056139044464,-0.0155654822789249
1744664802435721200,22.59772119140625,0.07646715360879898,0.004734517708607017,-0.011810559325350913
1744664802455781000,22.617781005859374,0.08005728705525397,0.0149356667926535,-0.00974216468661325
1744664802475841300,22.63784130859375,0.07796236060261726,0.021234693871624768,0.0003902962255291641
1744664802495900200,22.657900146484376,0.07047872684895992,0.010343114838004111,-0.00786095633318182
1744664802515960300,22.677960205078126,0.08124971171021461,0.018795264830254017,0.004112442570796702
1744664802536020200,22.698020263671875,0.07676175264120101,0.001852422933652997,0.0163761205250863
1744664802556080400,22.718080322265624,0.08349719837605953,-0.00820982913635671,0.030155664668732787
1744664802576139300,22.73813916015625,0.07467033331990242,-0.00900744578745216,-0.001651945625222288
1744664802596199200,22.75819921875,0.08245499584674834,-0.006985328842699527,0.0012918710080208255
1744664802616259300,22.77825927734375,0.08859247568845749,-0.019306977212056518,-0.019306246559694408
1744664802636318200,22.798318115234373,0.0806575910359621,-0.006355250778235495,-0.006702397415204905
1744664802656378400,22.81837841796875,0.11133680693805217,-0.007489880831353366,0.00014541808636859058
1744664802676438300,22.838438232421876,0.071381228646636,-0.0014632409529760479,0.011851078565407078
1744664802696497200,22.8584970703125,0.08873919068276882,0.012757592101208864,0.0000910050349892117
1744664802716557300,22.878557373046874,0.07796236060261726,0.02270019984692335,-0.01336196946883574
1744664802736617200,22.8986171875,0.08529577223062515,0.02940167024694383,-0.00461467930477811
1744664802756677000,22.918677001953125,0.0679395637601614,0.005418189123831689,-0.007499383878638036
1744664802776736300,22.938736328125,0.07721475710570812,-0.008002323865517974,-0.006813527356192935
1744664802796796400,22.95879638671875,0.08679507087767124,-0.011822210947237908,-0.0016181826362269929
1744664802816856000,22.97885595703125,0.07244272039830685,-0.015994601261056958,0.011182926663011312
1744664802836916000,22.998916015625,0.08905600154697894,-0.007689385458827018,0.015996567172568758
1744664802856976000,23.018975830078126,0.08770634050369262,-0.010766235620900988,0.0011882667863625102
1744664802877035800,23.039035888671876,0.09458908575475215,-0.00746094699781388,0.008912607110850512
1744664802897095000,23.059094970703125,0.05896773727536201,-0.0016177739275619386,0.00038971855350537223
1744664802917154800,23.07915478515625,0.07631926957070827,-0.0008971315028145909,-0.0018576539479079656
1744664802937215000,23.099215087890624,0.07032908924520015,0.005945464400947093,-0.014718261182308196
1744664802957275000,23.11927490234375,0.08215162898600101,0.009506700546480715,0.008168953703274019
1744664802977333800,23.139333740234374,0.07841302697956562,0.012308533159457147,0.006350896546815056
1744664802997394000,23.159393798828123,0.07646949169635772,0.00895904006846249,0.020661839586845598
1744664803017453800,23.179453857421876,0.11343640956580638,0.0001321750123053789,0.018636363924515897
1744664803037512700,23.1995126953125,0.08021686153113841,0.00042830841466784473,0.020829611068917436
1744664803057572900,23.21957275390625,0.06690086836218834,-0.00005516425333917141,-0.012110944211145397
1744664803077633000,23.239633056640624,0.08261223223507404,-0.0057411374678835265,-0.001269300699897576
1744664803097691600,23.259691650390625,0.08410919279456137,-0.0017239377157762645,-0.006771348165301606
1744664803117751800,23.279751708984374,0.060170098802447315,0.000304316708818078,0.013647474162618163
1744664803137812000,23.29981201171875,0.08860007447302341,-0.008205262559093535,-0.009306899091484955
1744664803157871000,23.31987109375,0.07543196534216404,-0.005369600741751491,-0.010197929647075943
1744664803177930800,23.3399306640625,0.08411328444778919,0.0007300313076004385,-0.007530221974896266
1744664803197991000,23.359990966796875,0.0785749395430088,0.006158084238320588,-0.007328774268797133
1744664803218051000,23.380051025390625,0.08171674470007419,0.02262983802445233,-0.008254417196754366
1744664803238110000,23.40010986328125,0.08785305549800396,-0.0014746391298249362,0.0031040053137694483
1744664803258169900,23.420169921875,0.07378478265702725,0.015178170311637222,-0.0006435791501426138
1744664803278230000,23.44022998046875,0.08755728742182255,-0.006338226578198373,0.011461492442642338
1744664803298289000,23.460288818359373,0.08216624203324317,-0.004907061263918876,0.007022665178403258
1744664803318348800,23.480348876953126,0.07991992441117764,-0.015794256383366883,0.018069391391251702
1744664803338409000,23.500408935546876,0.07902911305129527,-0.007566051340103149,-0.0015515699736890383
1744664803358467800,23.5204677734375,0.07274608725905418,0.00032437311615794896,-0.009530225269251968
1744664803378528000,23.540528076171874,0.07662555904090404,-0.006329020358435809,-0.015618191996985114
1744664803398588000,23.560587890625,0.0811105955004692,-0.007724420239590108,-0.005260192400391679
1744664803418646800,23.580646728515624,0.07796177608072757,0.0013901391841471195,-0.003935690914536826
1744664803438707000,23.60070703125,0.06389759489297867,0.012577267098240554,0.013816944411431904
1744664803458766800,23.620766845703123,0.08604980546832085,0.015725684659183024,0.008711942572752013
1744664803478827000,23.640826904296876,0.07422375859618187,0.010299750620312988,0.00516473495257087
1744664803498886000,23.660885986328125,0.07376549343466758,0.006472520482353866,-0.004282648038549814
1744664803518946000,23.680946044921875,0.0772159261494875,-0.00316872969660908,-0.00979899345736485
1744664803539006000,23.701005859375,0.06883972747027874,-0.01490494286082685,-0.011847477819235064
1744664803559064800,23.72106494140625,0.08007014653682708,-0.02002360104881227,-0.009161572336661629
1744664803579125000,23.741125,0.06870002673864364,-0.00660560881011188,0.009025209773005917
1744664803599185000,23.761184814453124,0.07124737313389777,0.0013913812931627034,0.011289428377943113
1744664803619243800,23.781243896484376,0.08905541702508926,-0.0007331365801393986,0.010985842321487143
1744664803639304000,23.801303955078126,0.08202186512649058,0.002864449520409107,0.003141097337589599
1744664803659364000,23.821364013671875,0.07618482953608036,0.004691701480187475,-0.007179942665924317
1744664803679423000,23.841423095703124,0.0715466483414173,0.01245389644689858,-0.0066630289526190606
1744664803699483000,23.86148291015625,0.07932605017125606,0.003197882725857198,0.012349056966090574
1744664803719543000,23.88154296875,0.07439034733474253,0.005376943797990679,0.006808049746765754
1744664803739602000,23.901601806640624,0.07274784082472324,0.00365702467020601,0.01348507525869645
1744664803759661800,23.921661865234373,0.08323182543814182,-0.006275025148876011,0.003373956245393492
1744664803779722000,23.941721923828126,0.07799450930655003,-0.0037534342493861913,0.003084544844762422
1744664803799780900,23.96178076171875,0.0872755478709936,0.0005069266088306904,-0.006467949338513426
1744664803819841000,23.981841064453125,0.07201134324371815,0.01293861122392118,-0.008704467085772194
